subj,session,trial,rt,object_response,category,condition,imagename
googlenet,5,1,NaN,chair,knife,0.00,5121_nse_dnn_0.00_knife_10_n03041632_14546.JPEG
googlenet,5,2,NaN,knife,knife,0.00,5122_nse_dnn_0.00_knife_10_n03041632_51339.JPEG
googlenet,5,3,NaN,knife,knife,0.00,5123_nse_dnn_0.00_knife_10_n03041632_13225.JPEG
googlenet,5,4,NaN,knife,knife,0.00,5124_nse_dnn_0.00_knife_10_n03041632_31271.JPEG
googlenet,5,5,NaN,knife,knife,0.00,5125_nse_dnn_0.00_knife_10_n03041632_30196.JPEG
googlenet,5,6,NaN,knife,knife,0.00,5126_nse_dnn_0.00_knife_10_n03041632_10999.JPEG
googlenet,5,7,NaN,truck,knife,0.00,5127_nse_dnn_0.00_knife_10_n03041632_20595.JPEG
googlenet,5,8,NaN,bottle,knife,0.00,5128_nse_dnn_0.00_knife_10_n03041632_8321.JPEG
googlenet,5,9,NaN,cat,knife,0.00,5129_nse_dnn_0.00_knife_10_n03041632_36247.JPEG
googlenet,5,10,NaN,knife,knife,0.00,5130_nse_dnn_0.00_knife_10_n03041632_28443.JPEG
googlenet,5,11,NaN,keyboard,keyboard,0.00,5131_nse_dnn_0.00_keyboard_10_n03085013_22417.JPEG
googlenet,5,12,NaN,chair,keyboard,0.00,5132_nse_dnn_0.00_keyboard_10_n03085013_23571.JPEG
googlenet,5,13,NaN,chair,keyboard,0.00,5133_nse_dnn_0.00_keyboard_10_n03085013_22870.JPEG
googlenet,5,14,NaN,keyboard,keyboard,0.00,5134_nse_dnn_0.00_keyboard_10_n04505470_4417.JPEG
googlenet,5,15,NaN,keyboard,keyboard,0.00,5135_nse_dnn_0.00_keyboard_10_n04505470_4732.JPEG
googlenet,5,16,NaN,keyboard,keyboard,0.00,5136_nse_dnn_0.00_keyboard_10_n03085013_18854.JPEG
googlenet,5,17,NaN,keyboard,keyboard,0.00,5137_nse_dnn_0.00_keyboard_10_n03085013_23705.JPEG
googlenet,5,18,NaN,keyboard,keyboard,0.00,5138_nse_dnn_0.00_keyboard_10_n04505470_10055.JPEG
googlenet,5,19,NaN,keyboard,keyboard,0.00,5139_nse_dnn_0.00_keyboard_10_n04505470_2038.JPEG
googlenet,5,20,NaN,keyboard,keyboard,0.00,5140_nse_dnn_0.00_keyboard_10_n03085013_22069.JPEG
googlenet,5,21,NaN,elephant,elephant,0.00,5141_nse_dnn_0.00_elephant_10_n02504013_5833.JPEG
googlenet,5,22,NaN,elephant,elephant,0.00,5142_nse_dnn_0.00_elephant_10_n02504013_3081.JPEG
googlenet,5,23,NaN,dog,elephant,0.00,5143_nse_dnn_0.00_elephant_10_n02504013_8385.JPEG
googlenet,5,24,NaN,dog,elephant,0.00,5144_nse_dnn_0.00_elephant_10_n02504458_736.JPEG
googlenet,5,25,NaN,elephant,elephant,0.00,5145_nse_dnn_0.00_elephant_10_n02504013_4424.JPEG
googlenet,5,26,NaN,elephant,elephant,0.00,5146_nse_dnn_0.00_elephant_10_n02504458_847.JPEG
googlenet,5,27,NaN,elephant,elephant,0.00,5147_nse_dnn_0.00_elephant_10_n02504013_23912.JPEG
googlenet,5,28,NaN,elephant,elephant,0.00,5148_nse_dnn_0.00_elephant_10_n02504458_2471.JPEG
googlenet,5,29,NaN,elephant,elephant,0.00,5149_nse_dnn_0.00_elephant_10_n02504458_11345.JPEG
googlenet,5,30,NaN,elephant,elephant,0.00,5150_nse_dnn_0.00_elephant_10_n02504458_5869.JPEG
googlenet,5,31,NaN,bicycle,bicycle,0.00,5151_nse_dnn_0.00_bicycle_10_n02835271_9661.JPEG
googlenet,5,32,NaN,car,bicycle,0.00,5152_nse_dnn_0.00_bicycle_10_n03792782_7477.JPEG
googlenet,5,33,NaN,bicycle,bicycle,0.00,5153_nse_dnn_0.00_bicycle_10_n03792782_34681.JPEG
googlenet,5,34,NaN,bicycle,bicycle,0.00,5154_nse_dnn_0.00_bicycle_10_n03792782_4207.JPEG
googlenet,5,35,NaN,bottle,bicycle,0.00,5155_nse_dnn_0.00_bicycle_10_n03792782_10179.JPEG
googlenet,5,36,NaN,bicycle,bicycle,0.00,5156_nse_dnn_0.00_bicycle_10_n03792782_7578.JPEG
googlenet,5,37,NaN,truck,bicycle,0.00,5157_nse_dnn_0.00_bicycle_10_n02835271_1221.JPEG
googlenet,5,38,NaN,bottle,bicycle,0.00,5158_nse_dnn_0.00_bicycle_10_n03792782_10437.JPEG
googlenet,5,39,NaN,bicycle,bicycle,0.00,5159_nse_dnn_0.00_bicycle_10_n02835271_1486.JPEG
googlenet,5,40,NaN,bicycle,bicycle,0.00,5160_nse_dnn_0.00_bicycle_10_n02835271_1345.JPEG
googlenet,5,41,NaN,airplane,airplane,0.00,5161_nse_dnn_0.00_airplane_10_n02690373_7036.JPEG
googlenet,5,42,NaN,airplane,airplane,0.00,5162_nse_dnn_0.00_airplane_10_n02690373_15097.JPEG
googlenet,5,43,NaN,airplane,airplane,0.00,5163_nse_dnn_0.00_airplane_10_n02690373_9165.JPEG
googlenet,5,44,NaN,truck,airplane,0.00,5164_nse_dnn_0.00_airplane_10_n02690373_7499.JPEG
googlenet,5,45,NaN,airplane,airplane,0.00,5165_nse_dnn_0.00_airplane_10_n02690373_9605.JPEG
googlenet,5,46,NaN,airplane,airplane,0.00,5166_nse_dnn_0.00_airplane_10_n02690373_2217.JPEG
googlenet,5,47,NaN,airplane,airplane,0.00,5167_nse_dnn_0.00_airplane_10_n02690373_980.JPEG
googlenet,5,48,NaN,airplane,airplane,0.00,5168_nse_dnn_0.00_airplane_10_n02690373_3065.JPEG
googlenet,5,49,NaN,airplane,airplane,0.00,5169_nse_dnn_0.00_airplane_10_n02690373_9309.JPEG
googlenet,5,50,NaN,airplane,airplane,0.00,5170_nse_dnn_0.00_airplane_10_n02690373_5277.JPEG
googlenet,5,51,NaN,bottle,clock,0.00,5171_nse_dnn_0.00_clock_10_n02708093_2283.JPEG
googlenet,5,52,NaN,clock,clock,0.00,5172_nse_dnn_0.00_clock_10_n04548280_2650.JPEG
googlenet,5,53,NaN,clock,clock,0.00,5173_nse_dnn_0.00_clock_10_n02708093_3496.JPEG
googlenet,5,54,NaN,clock,clock,0.00,5174_nse_dnn_0.00_clock_10_n04548280_5295.JPEG
googlenet,5,55,NaN,clock,clock,0.00,5175_nse_dnn_0.00_clock_10_n04548280_5120.JPEG
googlenet,5,56,NaN,clock,clock,0.00,5176_nse_dnn_0.00_clock_10_n04548280_8748.JPEG
googlenet,5,57,NaN,clock,clock,0.00,5177_nse_dnn_0.00_clock_10_n04548280_5327.JPEG
googlenet,5,58,NaN,clock,clock,0.00,5178_nse_dnn_0.00_clock_10_n04548280_119.JPEG
googlenet,5,59,NaN,clock,clock,0.00,5179_nse_dnn_0.00_clock_10_n04548280_1474.JPEG
googlenet,5,60,NaN,clock,clock,0.00,5180_nse_dnn_0.00_clock_10_n03196217_9065.JPEG
googlenet,5,61,NaN,dog,oven,0.00,5181_nse_dnn_0.00_oven_10_n04111531_15296.JPEG
googlenet,5,62,NaN,chair,oven,0.00,5182_nse_dnn_0.00_oven_10_n04111531_6485.JPEG
googlenet,5,63,NaN,oven,oven,0.00,5183_nse_dnn_0.00_oven_10_n04111531_5950.JPEG
googlenet,5,64,NaN,oven,oven,0.00,5184_nse_dnn_0.00_oven_10_n04111531_2662.JPEG
googlenet,5,65,NaN,bottle,oven,0.00,5185_nse_dnn_0.00_oven_10_n04111531_17045.JPEG
googlenet,5,66,NaN,bottle,oven,0.00,5186_nse_dnn_0.00_oven_10_n04111531_11993.JPEG
googlenet,5,67,NaN,bear,oven,0.00,5187_nse_dnn_0.00_oven_10_n04111531_6801.JPEG
googlenet,5,68,NaN,bird,oven,0.00,5188_nse_dnn_0.00_oven_10_n04111531_6933.JPEG
googlenet,5,69,NaN,chair,oven,0.00,5189_nse_dnn_0.00_oven_10_n04111531_22445.JPEG
googlenet,5,70,NaN,boat,oven,0.00,5190_nse_dnn_0.00_oven_10_n04111531_10102.JPEG
googlenet,5,71,NaN,chair,chair,0.00,5191_nse_dnn_0.00_chair_10_n03376595_17859.JPEG
googlenet,5,72,NaN,chair,chair,0.00,5192_nse_dnn_0.00_chair_10_n04099969_8946.JPEG
googlenet,5,73,NaN,chair,chair,0.00,5193_nse_dnn_0.00_chair_10_n02791124_7630.JPEG
googlenet,5,74,NaN,chair,chair,0.00,5194_nse_dnn_0.00_chair_10_n02791124_958.JPEG
googlenet,5,75,NaN,chair,chair,0.00,5195_nse_dnn_0.00_chair_10_n02791124_9595.JPEG
googlenet,5,76,NaN,chair,chair,0.00,5196_nse_dnn_0.00_chair_10_n03376595_6837.JPEG
googlenet,5,77,NaN,chair,chair,0.00,5197_nse_dnn_0.00_chair_10_n02791124_10784.JPEG
googlenet,5,78,NaN,chair,chair,0.00,5198_nse_dnn_0.00_chair_10_n02791124_8335.JPEG
googlenet,5,79,NaN,chair,chair,0.00,5199_nse_dnn_0.00_chair_10_n04429376_3940.JPEG
googlenet,5,80,NaN,chair,chair,0.00,5200_nse_dnn_0.00_chair_10_n04429376_31962.JPEG
googlenet,5,81,NaN,bear,bear,0.00,5201_nse_dnn_0.00_bear_10_n02132136_4771.JPEG
googlenet,5,82,NaN,bear,bear,0.00,5202_nse_dnn_0.00_bear_10_n02134084_5027.JPEG
googlenet,5,83,NaN,boat,bear,0.00,5203_nse_dnn_0.00_bear_10_n02133161_499.JPEG
googlenet,5,84,NaN,bear,bear,0.00,5204_nse_dnn_0.00_bear_10_n02133161_12745.JPEG
googlenet,5,85,NaN,bear,bear,0.00,5205_nse_dnn_0.00_bear_10_n02132136_5429.JPEG
googlenet,5,86,NaN,bear,bear,0.00,5206_nse_dnn_0.00_bear_10_n02134418_1566.JPEG
googlenet,5,87,NaN,bear,bear,0.00,5207_nse_dnn_0.00_bear_10_n02133161_19677.JPEG
googlenet,5,88,NaN,bear,bear,0.00,5208_nse_dnn_0.00_bear_10_n02133161_12349.JPEG
googlenet,5,89,NaN,bear,bear,0.00,5209_nse_dnn_0.00_bear_10_n02134418_4180.JPEG
googlenet,5,90,NaN,bear,bear,0.00,5210_nse_dnn_0.00_bear_10_n02134084_13162.JPEG
googlenet,5,91,NaN,boat,boat,0.00,5211_nse_dnn_0.00_boat_10_n03662601_24452.JPEG
googlenet,5,92,NaN,boat,boat,0.00,5212_nse_dnn_0.00_boat_10_n04273569_14012.JPEG
googlenet,5,93,NaN,boat,boat,0.00,5213_nse_dnn_0.00_boat_10_n04273569_1482.JPEG
googlenet,5,94,NaN,boat,boat,0.00,5214_nse_dnn_0.00_boat_10_n03662601_17630.JPEG
googlenet,5,95,NaN,boat,boat,0.00,5215_nse_dnn_0.00_boat_10_n04612504_10128.JPEG
googlenet,5,96,NaN,boat,boat,0.00,5216_nse_dnn_0.00_boat_10_n03344393_4783.JPEG
googlenet,5,97,NaN,boat,boat,0.00,5217_nse_dnn_0.00_boat_10_n03344393_6449.JPEG
googlenet,5,98,NaN,airplane,boat,0.00,5218_nse_dnn_0.00_boat_10_n03662601_22553.JPEG
googlenet,5,99,NaN,boat,boat,0.00,5219_nse_dnn_0.00_boat_10_n03344393_10245.JPEG
googlenet,5,100,NaN,boat,boat,0.00,5220_nse_dnn_0.00_boat_10_n03662601_16297.JPEG
googlenet,5,101,NaN,cat,cat,0.00,5221_nse_dnn_0.00_cat_10_n02123394_2076.JPEG
googlenet,5,102,NaN,cat,cat,0.00,5222_nse_dnn_0.00_cat_10_n02125311_4805.JPEG
googlenet,5,103,NaN,cat,cat,0.00,5223_nse_dnn_0.00_cat_10_n02123045_5049.JPEG
googlenet,5,104,NaN,dog,cat,0.00,5224_nse_dnn_0.00_cat_10_n02123597_2393.JPEG
googlenet,5,105,NaN,cat,cat,0.00,5225_nse_dnn_0.00_cat_10_n02123597_11650.JPEG
googlenet,5,106,NaN,cat,cat,0.00,5226_nse_dnn_0.00_cat_10_n02124075_7230.JPEG
googlenet,5,107,NaN,bear,cat,0.00,5227_nse_dnn_0.00_cat_10_n02125311_30685.JPEG
googlenet,5,108,NaN,cat,cat,0.00,5228_nse_dnn_0.00_cat_10_n02123159_3880.JPEG
googlenet,5,109,NaN,cat,cat,0.00,5229_nse_dnn_0.00_cat_10_n02123597_28555.JPEG
googlenet,5,110,NaN,cat,cat,0.00,5230_nse_dnn_0.00_cat_10_n02125311_34464.JPEG
googlenet,5,111,NaN,bottle,bottle,0.00,5231_nse_dnn_0.00_bottle_10_n04557648_4428.JPEG
googlenet,5,112,NaN,bottle,bottle,0.00,5232_nse_dnn_0.00_bottle_10_n04557648_590.JPEG
googlenet,5,113,NaN,bottle,bottle,0.00,5233_nse_dnn_0.00_bottle_10_n04591713_6794.JPEG
googlenet,5,114,NaN,bottle,bottle,0.00,5234_nse_dnn_0.00_bottle_10_n04557648_3679.JPEG
googlenet,5,115,NaN,bottle,bottle,0.00,5235_nse_dnn_0.00_bottle_10_n02823428_5798.JPEG
googlenet,5,116,NaN,truck,bottle,0.00,5236_nse_dnn_0.00_bottle_10_n04560804_432.JPEG
googlenet,5,117,NaN,bottle,bottle,0.00,5237_nse_dnn_0.00_bottle_10_n04557648_2371.JPEG
googlenet,5,118,NaN,bottle,bottle,0.00,5238_nse_dnn_0.00_bottle_10_n02823428_2311.JPEG
googlenet,5,119,NaN,bottle,bottle,0.00,5239_nse_dnn_0.00_bottle_10_n03937543_5328.JPEG
googlenet,5,120,NaN,bottle,bottle,0.00,5240_nse_dnn_0.00_bottle_10_n04557648_20773.JPEG
googlenet,5,121,NaN,truck,truck,0.00,5241_nse_dnn_0.00_truck_10_n03417042_9601.JPEG
googlenet,5,122,NaN,truck,truck,0.00,5242_nse_dnn_0.00_truck_10_n04467665_79452.JPEG
googlenet,5,123,NaN,truck,truck,0.00,5243_nse_dnn_0.00_truck_10_n03417042_8654.JPEG
googlenet,5,124,NaN,truck,truck,0.00,5244_nse_dnn_0.00_truck_10_n03796401_28465.JPEG
googlenet,5,125,NaN,truck,truck,0.00,5245_nse_dnn_0.00_truck_10_n04467665_27873.JPEG
googlenet,5,126,NaN,truck,truck,0.00,5246_nse_dnn_0.00_truck_10_n03417042_1631.JPEG
googlenet,5,127,NaN,boat,truck,0.00,5247_nse_dnn_0.00_truck_10_n04467665_45983.JPEG
googlenet,5,128,NaN,truck,truck,0.00,5248_nse_dnn_0.00_truck_10_n03796401_26284.JPEG
googlenet,5,129,NaN,truck,truck,0.00,5249_nse_dnn_0.00_truck_10_n03796401_5963.JPEG
googlenet,5,130,NaN,chair,truck,0.00,5250_nse_dnn_0.00_truck_10_n03417042_12297.JPEG
googlenet,5,131,NaN,bottle,car,0.00,5251_nse_dnn_0.00_car_10_n04285008_514.JPEG
googlenet,5,132,NaN,car,car,0.00,5252_nse_dnn_0.00_car_10_n03100240_266.JPEG
googlenet,5,133,NaN,car,car,0.00,5253_nse_dnn_0.00_car_10_n03100240_8938.JPEG
googlenet,5,134,NaN,car,car,0.00,5254_nse_dnn_0.00_car_10_n04285008_14681.JPEG
googlenet,5,135,NaN,car,car,0.00,5255_nse_dnn_0.00_car_10_n04285008_13958.JPEG
googlenet,5,136,NaN,car,car,0.00,5256_nse_dnn_0.00_car_10_n04285008_2537.JPEG
googlenet,5,137,NaN,car,car,0.00,5257_nse_dnn_0.00_car_10_n02814533_84606.JPEG
googlenet,5,138,NaN,car,car,0.00,5258_nse_dnn_0.00_car_10_n04285008_2906.JPEG
googlenet,5,139,NaN,car,car,0.00,5259_nse_dnn_0.00_car_10_n04285008_9234.JPEG
googlenet,5,140,NaN,car,car,0.00,5260_nse_dnn_0.00_car_10_n02814533_73506.JPEG
googlenet,5,141,NaN,bird,bird,0.00,5261_nse_dnn_0.00_bird_10_n02009912_629.JPEG
googlenet,5,142,NaN,bird,bird,0.00,5262_nse_dnn_0.00_bird_10_n02002556_735.JPEG
googlenet,5,143,NaN,bird,bird,0.00,5263_nse_dnn_0.00_bird_10_n01532829_5330.JPEG
googlenet,5,144,NaN,bird,bird,0.00,5264_nse_dnn_0.00_bird_10_n01860187_27129.JPEG
googlenet,5,145,NaN,bird,bird,0.00,5265_nse_dnn_0.00_bird_10_n02011460_1995.JPEG
googlenet,5,146,NaN,bear,bird,0.00,5266_nse_dnn_0.00_bird_10_n01531178_14016.JPEG
googlenet,5,147,NaN,bird,bird,0.00,5267_nse_dnn_0.00_bird_10_n02011460_3231.JPEG
googlenet,5,148,NaN,bird,bird,0.00,5268_nse_dnn_0.00_bird_10_n01798484_908.JPEG
googlenet,5,149,NaN,bird,bird,0.00,5269_nse_dnn_0.00_bird_10_n01860187_1380.JPEG
googlenet,5,150,NaN,bird,bird,0.00,5270_nse_dnn_0.00_bird_10_n01534433_6159.JPEG
googlenet,5,151,NaN,dog,dog,0.00,5271_nse_dnn_0.00_dog_10_n02102973_153.JPEG
googlenet,5,152,NaN,dog,dog,0.00,5272_nse_dnn_0.00_dog_10_n02101556_7699.JPEG
googlenet,5,153,NaN,dog,dog,0.00,5273_nse_dnn_0.00_dog_10_n02088364_11394.JPEG
googlenet,5,154,NaN,dog,dog,0.00,5274_nse_dnn_0.00_dog_10_n02102040_4262.JPEG
googlenet,5,155,NaN,dog,dog,0.00,5275_nse_dnn_0.00_dog_10_n02107574_1689.JPEG
googlenet,5,156,NaN,dog,dog,0.00,5276_nse_dnn_0.00_dog_10_n02113799_11604.JPEG
googlenet,5,157,NaN,bear,dog,0.00,5277_nse_dnn_0.00_dog_10_n02111129_993.JPEG
googlenet,5,158,NaN,dog,dog,0.00,5278_nse_dnn_0.00_dog_10_n02104029_3758.JPEG
googlenet,5,159,NaN,dog,dog,0.00,5279_nse_dnn_0.00_dog_10_n02088238_2364.JPEG
googlenet,5,160,NaN,dog,dog,0.00,5280_nse_dnn_0.00_dog_10_n02109961_22794.JPEG
googlenet,5,161,NaN,bottle,knife,0.03,5281_nse_dnn_0.03_knife_10_n03041632_29920.JPEG
googlenet,5,162,NaN,knife,knife,0.03,5282_nse_dnn_0.03_knife_10_n03041632_36834.JPEG
googlenet,5,163,NaN,bear,knife,0.03,5283_nse_dnn_0.03_knife_10_n03041632_32896.JPEG
googlenet,5,164,NaN,chair,knife,0.03,5284_nse_dnn_0.03_knife_10_n03041632_3079.JPEG
googlenet,5,165,NaN,chair,knife,0.03,5285_nse_dnn_0.03_knife_10_n03041632_3504.JPEG
googlenet,5,166,NaN,knife,knife,0.03,5286_nse_dnn_0.03_knife_10_n03041632_3159.JPEG
googlenet,5,167,NaN,knife,knife,0.03,5287_nse_dnn_0.03_knife_10_n03041632_104379.JPEG
googlenet,5,168,NaN,chair,knife,0.03,5288_nse_dnn_0.03_knife_10_n03041632_43506.JPEG
googlenet,5,169,NaN,knife,knife,0.03,5289_nse_dnn_0.03_knife_10_n03041632_14817.JPEG
googlenet,5,170,NaN,bottle,knife,0.03,5290_nse_dnn_0.03_knife_10_n03041632_6557.JPEG
googlenet,5,171,NaN,keyboard,keyboard,0.03,5291_nse_dnn_0.03_keyboard_10_n03085013_14643.JPEG
googlenet,5,172,NaN,keyboard,keyboard,0.03,5292_nse_dnn_0.03_keyboard_10_n03085013_20749.JPEG
googlenet,5,173,NaN,keyboard,keyboard,0.03,5293_nse_dnn_0.03_keyboard_10_n03085013_24105.JPEG
googlenet,5,174,NaN,dog,keyboard,0.03,5294_nse_dnn_0.03_keyboard_10_n03085013_1944.JPEG
googlenet,5,175,NaN,keyboard,keyboard,0.03,5295_nse_dnn_0.03_keyboard_10_n03085013_19233.JPEG
googlenet,5,176,NaN,keyboard,keyboard,0.03,5296_nse_dnn_0.03_keyboard_10_n04505470_2010.JPEG
googlenet,5,177,NaN,keyboard,keyboard,0.03,5297_nse_dnn_0.03_keyboard_10_n04505470_2141.JPEG
googlenet,5,178,NaN,keyboard,keyboard,0.03,5298_nse_dnn_0.03_keyboard_10_n04505470_1687.JPEG
googlenet,5,179,NaN,keyboard,keyboard,0.03,5299_nse_dnn_0.03_keyboard_10_n03085013_20837.JPEG
googlenet,5,180,NaN,keyboard,keyboard,0.03,5300_nse_dnn_0.03_keyboard_10_n04505470_5153.JPEG
googlenet,5,181,NaN,elephant,elephant,0.03,5301_nse_dnn_0.03_elephant_10_n02504013_2438.JPEG
googlenet,5,182,NaN,elephant,elephant,0.03,5302_nse_dnn_0.03_elephant_10_n02504458_885.JPEG
googlenet,5,183,NaN,elephant,elephant,0.03,5303_nse_dnn_0.03_elephant_10_n02504458_4143.JPEG
googlenet,5,184,NaN,elephant,elephant,0.03,5304_nse_dnn_0.03_elephant_10_n02504458_6226.JPEG
googlenet,5,185,NaN,elephant,elephant,0.03,5305_nse_dnn_0.03_elephant_10_n02504458_379.JPEG
googlenet,5,186,NaN,elephant,elephant,0.03,5306_nse_dnn_0.03_elephant_10_n02504458_11700.JPEG
googlenet,5,187,NaN,dog,elephant,0.03,5307_nse_dnn_0.03_elephant_10_n02504458_6336.JPEG
googlenet,5,188,NaN,elephant,elephant,0.03,5308_nse_dnn_0.03_elephant_10_n02504458_7570.JPEG
googlenet,5,189,NaN,elephant,elephant,0.03,5309_nse_dnn_0.03_elephant_10_n02504013_354.JPEG
googlenet,5,190,NaN,bear,elephant,0.03,5310_nse_dnn_0.03_elephant_10_n02504013_13319.JPEG
googlenet,5,191,NaN,clock,bicycle,0.03,5311_nse_dnn_0.03_bicycle_10_n03792782_16436.JPEG
googlenet,5,192,NaN,bicycle,bicycle,0.03,5312_nse_dnn_0.03_bicycle_10_n02835271_15216.JPEG
googlenet,5,193,NaN,bicycle,bicycle,0.03,5313_nse_dnn_0.03_bicycle_10_n02835271_323.JPEG
googlenet,5,194,NaN,bicycle,bicycle,0.03,5314_nse_dnn_0.03_bicycle_10_n02835271_3392.JPEG
googlenet,5,195,NaN,clock,bicycle,0.03,5315_nse_dnn_0.03_bicycle_10_n03792782_1030.JPEG
googlenet,5,196,NaN,bicycle,bicycle,0.03,5316_nse_dnn_0.03_bicycle_10_n02835271_14303.JPEG
googlenet,5,197,NaN,truck,bicycle,0.03,5317_nse_dnn_0.03_bicycle_10_n03792782_42626.JPEG
googlenet,5,198,NaN,bicycle,bicycle,0.03,5318_nse_dnn_0.03_bicycle_10_n02835271_12237.JPEG
googlenet,5,199,NaN,chair,bicycle,0.03,5319_nse_dnn_0.03_bicycle_10_n02835271_18222.JPEG
googlenet,5,200,NaN,bicycle,bicycle,0.03,5320_nse_dnn_0.03_bicycle_10_n03792782_7299.JPEG
googlenet,5,201,NaN,airplane,airplane,0.03,5321_nse_dnn_0.03_airplane_10_n02690373_2431.JPEG
googlenet,5,202,NaN,airplane,airplane,0.03,5322_nse_dnn_0.03_airplane_10_n02690373_6618.JPEG
googlenet,5,203,NaN,airplane,airplane,0.03,5323_nse_dnn_0.03_airplane_10_n02690373_13206.JPEG
googlenet,5,204,NaN,airplane,airplane,0.03,5324_nse_dnn_0.03_airplane_10_n02690373_17157.JPEG
googlenet,5,205,NaN,bear,airplane,0.03,5325_nse_dnn_0.03_airplane_10_n02690373_139.JPEG
googlenet,5,206,NaN,airplane,airplane,0.03,5326_nse_dnn_0.03_airplane_10_n02690373_5075.JPEG
googlenet,5,207,NaN,airplane,airplane,0.03,5327_nse_dnn_0.03_airplane_10_n02690373_12929.JPEG
googlenet,5,208,NaN,airplane,airplane,0.03,5328_nse_dnn_0.03_airplane_10_n02690373_6516.JPEG
googlenet,5,209,NaN,airplane,airplane,0.03,5329_nse_dnn_0.03_airplane_10_n02690373_633.JPEG
googlenet,5,210,NaN,airplane,airplane,0.03,5330_nse_dnn_0.03_airplane_10_n02690373_10518.JPEG
googlenet,5,211,NaN,clock,clock,0.03,5331_nse_dnn_0.03_clock_10_n03196217_5845.JPEG
googlenet,5,212,NaN,clock,clock,0.03,5332_nse_dnn_0.03_clock_10_n02708093_643.JPEG
googlenet,5,213,NaN,clock,clock,0.03,5333_nse_dnn_0.03_clock_10_n02708093_3564.JPEG
googlenet,5,214,NaN,clock,clock,0.03,5334_nse_dnn_0.03_clock_10_n04548280_405.JPEG
googlenet,5,215,NaN,bottle,clock,0.03,5335_nse_dnn_0.03_clock_10_n03196217_13201.JPEG
googlenet,5,216,NaN,keyboard,clock,0.03,5336_nse_dnn_0.03_clock_10_n03196217_9432.JPEG
googlenet,5,217,NaN,bottle,clock,0.03,5337_nse_dnn_0.03_clock_10_n04548280_5068.JPEG
googlenet,5,218,NaN,clock,clock,0.03,5338_nse_dnn_0.03_clock_10_n04548280_5262.JPEG
googlenet,5,219,NaN,clock,clock,0.03,5339_nse_dnn_0.03_clock_10_n04548280_14661.JPEG
googlenet,5,220,NaN,clock,clock,0.03,5340_nse_dnn_0.03_clock_10_n03196217_8999.JPEG
googlenet,5,221,NaN,chair,oven,0.03,5341_nse_dnn_0.03_oven_10_n04111531_21963.JPEG
googlenet,5,222,NaN,bear,oven,0.03,5342_nse_dnn_0.03_oven_10_n04111531_5549.JPEG
googlenet,5,223,NaN,chair,oven,0.03,5343_nse_dnn_0.03_oven_10_n04111531_10724.JPEG
googlenet,5,224,NaN,cat,oven,0.03,5344_nse_dnn_0.03_oven_10_n04111531_2752.JPEG
googlenet,5,225,NaN,boat,oven,0.03,5345_nse_dnn_0.03_oven_10_n04111531_2803.JPEG
googlenet,5,226,NaN,airplane,oven,0.03,5346_nse_dnn_0.03_oven_10_n04111531_7106.JPEG
googlenet,5,227,NaN,bottle,oven,0.03,5347_nse_dnn_0.03_oven_10_n04111531_15682.JPEG
googlenet,5,228,NaN,chair,oven,0.03,5348_nse_dnn_0.03_oven_10_n04111531_15616.JPEG
googlenet,5,229,NaN,chair,oven,0.03,5349_nse_dnn_0.03_oven_10_n04111531_73.JPEG
googlenet,5,230,NaN,bear,oven,0.03,5350_nse_dnn_0.03_oven_10_n04111531_9915.JPEG
googlenet,5,231,NaN,bear,chair,0.03,5351_nse_dnn_0.03_chair_10_n04099969_1852.JPEG
googlenet,5,232,NaN,chair,chair,0.03,5352_nse_dnn_0.03_chair_10_n02791124_974.JPEG
googlenet,5,233,NaN,chair,chair,0.03,5353_nse_dnn_0.03_chair_10_n03376595_5266.JPEG
googlenet,5,234,NaN,chair,chair,0.03,5354_nse_dnn_0.03_chair_10_n04429376_23230.JPEG
googlenet,5,235,NaN,chair,chair,0.03,5355_nse_dnn_0.03_chair_10_n02791124_7232.JPEG
googlenet,5,236,NaN,chair,chair,0.03,5356_nse_dnn_0.03_chair_10_n04429376_19623.JPEG
googlenet,5,237,NaN,bear,chair,0.03,5357_nse_dnn_0.03_chair_10_n04099969_319.JPEG
googlenet,5,238,NaN,chair,chair,0.03,5358_nse_dnn_0.03_chair_10_n03376595_1615.JPEG
googlenet,5,239,NaN,chair,chair,0.03,5359_nse_dnn_0.03_chair_10_n04429376_13448.JPEG
googlenet,5,240,NaN,chair,chair,0.03,5360_nse_dnn_0.03_chair_10_n04099969_17424.JPEG
googlenet,5,241,NaN,bear,bear,0.03,5361_nse_dnn_0.03_bear_10_n02133161_2124.JPEG
googlenet,5,242,NaN,bear,bear,0.03,5362_nse_dnn_0.03_bear_10_n02134418_2686.JPEG
googlenet,5,243,NaN,bear,bear,0.03,5363_nse_dnn_0.03_bear_10_n02134418_2254.JPEG
googlenet,5,244,NaN,bear,bear,0.03,5364_nse_dnn_0.03_bear_10_n02133161_1170.JPEG
googlenet,5,245,NaN,bear,bear,0.03,5365_nse_dnn_0.03_bear_10_n02132136_1795.JPEG
googlenet,5,246,NaN,bear,bear,0.03,5366_nse_dnn_0.03_bear_10_n02134418_4350.JPEG
googlenet,5,247,NaN,bear,bear,0.03,5367_nse_dnn_0.03_bear_10_n02132136_494.JPEG
googlenet,5,248,NaN,bear,bear,0.03,5368_nse_dnn_0.03_bear_10_n02134418_5712.JPEG
googlenet,5,249,NaN,bear,bear,0.03,5369_nse_dnn_0.03_bear_10_n02134418_13492.JPEG
googlenet,5,250,NaN,bear,bear,0.03,5370_nse_dnn_0.03_bear_10_n02132136_6967.JPEG
googlenet,5,251,NaN,boat,boat,0.03,5371_nse_dnn_0.03_boat_10_n04612504_13987.JPEG
googlenet,5,252,NaN,boat,boat,0.03,5372_nse_dnn_0.03_boat_10_n04612504_4660.JPEG
googlenet,5,253,NaN,chair,boat,0.03,5373_nse_dnn_0.03_boat_10_n03344393_7135.JPEG
googlenet,5,254,NaN,bird,boat,0.03,5374_nse_dnn_0.03_boat_10_n04273569_11656.JPEG
googlenet,5,255,NaN,boat,boat,0.03,5375_nse_dnn_0.03_boat_10_n02951358_9414.JPEG
googlenet,5,256,NaN,airplane,boat,0.03,5376_nse_dnn_0.03_boat_10_n03662601_3145.JPEG
googlenet,5,257,NaN,boat,boat,0.03,5377_nse_dnn_0.03_boat_10_n04273569_18304.JPEG
googlenet,5,258,NaN,airplane,boat,0.03,5378_nse_dnn_0.03_boat_10_n03344393_4845.JPEG
googlenet,5,259,NaN,boat,boat,0.03,5379_nse_dnn_0.03_boat_10_n03662601_24639.JPEG
googlenet,5,260,NaN,boat,boat,0.03,5380_nse_dnn_0.03_boat_10_n03344393_11104.JPEG
googlenet,5,261,NaN,cat,cat,0.03,5381_nse_dnn_0.03_cat_10_n02125311_115.JPEG
googlenet,5,262,NaN,cat,cat,0.03,5382_nse_dnn_0.03_cat_10_n02123045_843.JPEG
googlenet,5,263,NaN,cat,cat,0.03,5383_nse_dnn_0.03_cat_10_n02123045_7233.JPEG
googlenet,5,264,NaN,cat,cat,0.03,5384_nse_dnn_0.03_cat_10_n02123045_5057.JPEG
googlenet,5,265,NaN,cat,cat,0.03,5385_nse_dnn_0.03_cat_10_n02123159_5239.JPEG
googlenet,5,266,NaN,cat,cat,0.03,5386_nse_dnn_0.03_cat_10_n02124075_14020.JPEG
googlenet,5,267,NaN,cat,cat,0.03,5387_nse_dnn_0.03_cat_10_n02123597_5887.JPEG
googlenet,5,268,NaN,cat,cat,0.03,5388_nse_dnn_0.03_cat_10_n02123159_8156.JPEG
googlenet,5,269,NaN,cat,cat,0.03,5389_nse_dnn_0.03_cat_10_n02123597_5111.JPEG
googlenet,5,270,NaN,cat,cat,0.03,5390_nse_dnn_0.03_cat_10_n02123394_1200.JPEG
googlenet,5,271,NaN,bottle,bottle,0.03,5391_nse_dnn_0.03_bottle_10_n03983396_9193.JPEG
googlenet,5,272,NaN,bottle,bottle,0.03,5392_nse_dnn_0.03_bottle_10_n03937543_6461.JPEG
googlenet,5,273,NaN,bottle,bottle,0.03,5393_nse_dnn_0.03_bottle_10_n02823428_4403.JPEG
googlenet,5,274,NaN,bottle,bottle,0.03,5394_nse_dnn_0.03_bottle_10_n03937543_11575.JPEG
googlenet,5,275,NaN,bottle,bottle,0.03,5395_nse_dnn_0.03_bottle_10_n04557648_4420.JPEG
googlenet,5,276,NaN,bottle,bottle,0.03,5396_nse_dnn_0.03_bottle_10_n04591713_7221.JPEG
googlenet,5,277,NaN,bottle,bottle,0.03,5397_nse_dnn_0.03_bottle_10_n02823428_4774.JPEG
googlenet,5,278,NaN,bottle,bottle,0.03,5398_nse_dnn_0.03_bottle_10_n02823428_617.JPEG
googlenet,5,279,NaN,bottle,bottle,0.03,5399_nse_dnn_0.03_bottle_10_n04560804_15520.JPEG
googlenet,5,280,NaN,bottle,bottle,0.03,5400_nse_dnn_0.03_bottle_10_n04560804_11559.JPEG
googlenet,5,281,NaN,truck,truck,0.03,5401_nse_dnn_0.03_truck_10_n03417042_7472.JPEG
googlenet,5,282,NaN,truck,truck,0.03,5402_nse_dnn_0.03_truck_10_n04467665_25374.JPEG
googlenet,5,283,NaN,truck,truck,0.03,5403_nse_dnn_0.03_truck_10_n04467665_4165.JPEG
googlenet,5,284,NaN,truck,truck,0.03,5404_nse_dnn_0.03_truck_10_n03417042_8175.JPEG
googlenet,5,285,NaN,truck,truck,0.03,5405_nse_dnn_0.03_truck_10_n04467665_33012.JPEG
googlenet,5,286,NaN,truck,truck,0.03,5406_nse_dnn_0.03_truck_10_n03417042_2241.JPEG
googlenet,5,287,NaN,truck,truck,0.03,5407_nse_dnn_0.03_truck_10_n03796401_28776.JPEG
googlenet,5,288,NaN,truck,truck,0.03,5408_nse_dnn_0.03_truck_10_n04467665_53618.JPEG
googlenet,5,289,NaN,truck,truck,0.03,5409_nse_dnn_0.03_truck_10_n03417042_27486.JPEG
googlenet,5,290,NaN,truck,truck,0.03,5410_nse_dnn_0.03_truck_10_n04467665_3524.JPEG
googlenet,5,291,NaN,car,car,0.03,5411_nse_dnn_0.03_car_10_n04285008_9317.JPEG
googlenet,5,292,NaN,truck,car,0.03,5412_nse_dnn_0.03_car_10_n03100240_4664.JPEG
googlenet,5,293,NaN,chair,car,0.03,5413_nse_dnn_0.03_car_10_n02814533_37181.JPEG
googlenet,5,294,NaN,car,car,0.03,5414_nse_dnn_0.03_car_10_n03100240_20061.JPEG
googlenet,5,295,NaN,car,car,0.03,5415_nse_dnn_0.03_car_10_n04285008_4525.JPEG
googlenet,5,296,NaN,airplane,car,0.03,5416_nse_dnn_0.03_car_10_n03100240_7737.JPEG
googlenet,5,297,NaN,car,car,0.03,5417_nse_dnn_0.03_car_10_n03100240_15790.JPEG
googlenet,5,298,NaN,car,car,0.03,5418_nse_dnn_0.03_car_10_n03100240_9387.JPEG
googlenet,5,299,NaN,car,car,0.03,5419_nse_dnn_0.03_car_10_n04285008_4749.JPEG
googlenet,5,300,NaN,car,car,0.03,5420_nse_dnn_0.03_car_10_n03100240_23195.JPEG
googlenet,5,301,NaN,bird,bird,0.03,5421_nse_dnn_0.03_bird_10_n02009229_19730.JPEG
googlenet,5,302,NaN,dog,bird,0.03,5422_nse_dnn_0.03_bird_10_n02007558_7647.JPEG
googlenet,5,303,NaN,bottle,bird,0.03,5423_nse_dnn_0.03_bird_10_n01833805_2881.JPEG
googlenet,5,304,NaN,cat,bird,0.03,5424_nse_dnn_0.03_bird_10_n01534433_8376.JPEG
googlenet,5,305,NaN,bear,bird,0.03,5425_nse_dnn_0.03_bird_10_n02007558_307.JPEG
googlenet,5,306,NaN,bird,bird,0.03,5426_nse_dnn_0.03_bird_10_n01824575_3896.JPEG
googlenet,5,307,NaN,bird,bird,0.03,5427_nse_dnn_0.03_bird_10_n02025239_3286.JPEG
googlenet,5,308,NaN,bird,bird,0.03,5428_nse_dnn_0.03_bird_10_n02025239_2741.JPEG
googlenet,5,309,NaN,bird,bird,0.03,5429_nse_dnn_0.03_bird_10_n01833805_411.JPEG
googlenet,5,310,NaN,bird,bird,0.03,5430_nse_dnn_0.03_bird_10_n02017213_4683.JPEG
googlenet,5,311,NaN,dog,dog,0.03,5431_nse_dnn_0.03_dog_10_n02107908_11026.JPEG
googlenet,5,312,NaN,dog,dog,0.03,5432_nse_dnn_0.03_dog_10_n02102177_7626.JPEG
googlenet,5,313,NaN,dog,dog,0.03,5433_nse_dnn_0.03_dog_10_n02088094_3654.JPEG
googlenet,5,314,NaN,dog,dog,0.03,5434_nse_dnn_0.03_dog_10_n02108422_8678.JPEG
googlenet,5,315,NaN,cat,dog,0.03,5435_nse_dnn_0.03_dog_10_n02094114_1198.JPEG
googlenet,5,316,NaN,dog,dog,0.03,5436_nse_dnn_0.03_dog_10_n02086079_35306.JPEG
googlenet,5,317,NaN,dog,dog,0.03,5437_nse_dnn_0.03_dog_10_n02088632_4431.JPEG
googlenet,5,318,NaN,dog,dog,0.03,5438_nse_dnn_0.03_dog_10_n02107312_4650.JPEG
googlenet,5,319,NaN,dog,dog,0.03,5439_nse_dnn_0.03_dog_10_n02097298_14406.JPEG
googlenet,5,320,NaN,dog,dog,0.03,5440_nse_dnn_0.03_dog_10_n02112350_7087.JPEG
googlenet,5,321,NaN,bottle,knife,0.05,5441_nse_dnn_0.05_knife_10_n03041632_7832.JPEG
googlenet,5,322,NaN,knife,knife,0.05,5442_nse_dnn_0.05_knife_10_n03041632_33268.JPEG
googlenet,5,323,NaN,clock,knife,0.05,5443_nse_dnn_0.05_knife_10_n03041632_80317.JPEG
googlenet,5,324,NaN,dog,knife,0.05,5444_nse_dnn_0.05_knife_10_n03041632_18766.JPEG
googlenet,5,325,NaN,clock,knife,0.05,5445_nse_dnn_0.05_knife_10_n03041632_51617.JPEG
googlenet,5,326,NaN,knife,knife,0.05,5446_nse_dnn_0.05_knife_10_n03041632_11186.JPEG
googlenet,5,327,NaN,knife,knife,0.05,5447_nse_dnn_0.05_knife_10_n03041632_1607.JPEG
googlenet,5,328,NaN,knife,knife,0.05,5448_nse_dnn_0.05_knife_10_n03041632_54191.JPEG
googlenet,5,329,NaN,chair,knife,0.05,5449_nse_dnn_0.05_knife_10_n03041632_29680.JPEG
googlenet,5,330,NaN,knife,knife,0.05,5450_nse_dnn_0.05_knife_10_n03041632_379.JPEG
googlenet,5,331,NaN,keyboard,keyboard,0.05,5451_nse_dnn_0.05_keyboard_10_n04505470_183.JPEG
googlenet,5,332,NaN,keyboard,keyboard,0.05,5452_nse_dnn_0.05_keyboard_10_n03085013_5819.JPEG
googlenet,5,333,NaN,keyboard,keyboard,0.05,5453_nse_dnn_0.05_keyboard_10_n03085013_20923.JPEG
googlenet,5,334,NaN,keyboard,keyboard,0.05,5454_nse_dnn_0.05_keyboard_10_n03085013_28741.JPEG
googlenet,5,335,NaN,chair,keyboard,0.05,5455_nse_dnn_0.05_keyboard_10_n03085013_13281.JPEG
googlenet,5,336,NaN,keyboard,keyboard,0.05,5456_nse_dnn_0.05_keyboard_10_n03085013_785.JPEG
googlenet,5,337,NaN,chair,keyboard,0.05,5457_nse_dnn_0.05_keyboard_10_n03085013_20852.JPEG
googlenet,5,338,NaN,keyboard,keyboard,0.05,5458_nse_dnn_0.05_keyboard_10_n04505470_5022.JPEG
googlenet,5,339,NaN,keyboard,keyboard,0.05,5459_nse_dnn_0.05_keyboard_10_n03085013_24522.JPEG
googlenet,5,340,NaN,keyboard,keyboard,0.05,5460_nse_dnn_0.05_keyboard_10_n04505470_4594.JPEG
googlenet,5,341,NaN,elephant,elephant,0.05,5461_nse_dnn_0.05_elephant_10_n02504013_11223.JPEG
googlenet,5,342,NaN,elephant,elephant,0.05,5462_nse_dnn_0.05_elephant_10_n02504458_3099.JPEG
googlenet,5,343,NaN,bear,elephant,0.05,5463_nse_dnn_0.05_elephant_10_n02504013_19753.JPEG
googlenet,5,344,NaN,dog,elephant,0.05,5464_nse_dnn_0.05_elephant_10_n02504458_1024.JPEG
googlenet,5,345,NaN,elephant,elephant,0.05,5465_nse_dnn_0.05_elephant_10_n02504013_3300.JPEG
googlenet,5,346,NaN,dog,elephant,0.05,5466_nse_dnn_0.05_elephant_10_n02504013_6751.JPEG
googlenet,5,347,NaN,elephant,elephant,0.05,5467_nse_dnn_0.05_elephant_10_n02504013_811.JPEG
googlenet,5,348,NaN,elephant,elephant,0.05,5468_nse_dnn_0.05_elephant_10_n02504458_974.JPEG
googlenet,5,349,NaN,cat,elephant,0.05,5469_nse_dnn_0.05_elephant_10_n02504458_6798.JPEG
googlenet,5,350,NaN,elephant,elephant,0.05,5470_nse_dnn_0.05_elephant_10_n02504013_6548.JPEG
googlenet,5,351,NaN,chair,bicycle,0.05,5471_nse_dnn_0.05_bicycle_10_n02835271_42320.JPEG
googlenet,5,352,NaN,chair,bicycle,0.05,5472_nse_dnn_0.05_bicycle_10_n02835271_29653.JPEG
googlenet,5,353,NaN,chair,bicycle,0.05,5473_nse_dnn_0.05_bicycle_10_n03792782_25799.JPEG
googlenet,5,354,NaN,elephant,bicycle,0.05,5474_nse_dnn_0.05_bicycle_10_n02835271_1453.JPEG
googlenet,5,355,NaN,bicycle,bicycle,0.05,5475_nse_dnn_0.05_bicycle_10_n03792782_14021.JPEG
googlenet,5,356,NaN,bicycle,bicycle,0.05,5476_nse_dnn_0.05_bicycle_10_n02835271_2987.JPEG
googlenet,5,357,NaN,bear,bicycle,0.05,5477_nse_dnn_0.05_bicycle_10_n03792782_378.JPEG
googlenet,5,358,NaN,bicycle,bicycle,0.05,5478_nse_dnn_0.05_bicycle_10_n02835271_974.JPEG
googlenet,5,359,NaN,bicycle,bicycle,0.05,5479_nse_dnn_0.05_bicycle_10_n02835271_7621.JPEG
googlenet,5,360,NaN,bicycle,bicycle,0.05,5480_nse_dnn_0.05_bicycle_10_n02835271_8203.JPEG
googlenet,5,361,NaN,airplane,airplane,0.05,5481_nse_dnn_0.05_airplane_10_n02690373_8876.JPEG
googlenet,5,362,NaN,airplane,airplane,0.05,5482_nse_dnn_0.05_airplane_10_n02690373_8613.JPEG
googlenet,5,363,NaN,bottle,airplane,0.05,5483_nse_dnn_0.05_airplane_10_n02690373_9404.JPEG
googlenet,5,364,NaN,airplane,airplane,0.05,5484_nse_dnn_0.05_airplane_10_n02690373_7107.JPEG
googlenet,5,365,NaN,airplane,airplane,0.05,5485_nse_dnn_0.05_airplane_10_n02690373_4298.JPEG
googlenet,5,366,NaN,airplane,airplane,0.05,5486_nse_dnn_0.05_airplane_10_n02690373_3639.JPEG
googlenet,5,367,NaN,truck,airplane,0.05,5487_nse_dnn_0.05_airplane_10_n02690373_6524.JPEG
googlenet,5,368,NaN,airplane,airplane,0.05,5488_nse_dnn_0.05_airplane_10_n02690373_1233.JPEG
googlenet,5,369,NaN,airplane,airplane,0.05,5489_nse_dnn_0.05_airplane_10_n02690373_1283.JPEG
googlenet,5,370,NaN,airplane,airplane,0.05,5490_nse_dnn_0.05_airplane_10_n02690373_3561.JPEG
googlenet,5,371,NaN,clock,clock,0.05,5491_nse_dnn_0.05_clock_10_n04548280_4557.JPEG
googlenet,5,372,NaN,clock,clock,0.05,5492_nse_dnn_0.05_clock_10_n04548280_6115.JPEG
googlenet,5,373,NaN,clock,clock,0.05,5493_nse_dnn_0.05_clock_10_n03196217_243.JPEG
googlenet,5,374,NaN,clock,clock,0.05,5494_nse_dnn_0.05_clock_10_n04548280_7370.JPEG
googlenet,5,375,NaN,clock,clock,0.05,5495_nse_dnn_0.05_clock_10_n02708093_149.JPEG
googlenet,5,376,NaN,elephant,clock,0.05,5496_nse_dnn_0.05_clock_10_n04548280_4249.JPEG
googlenet,5,377,NaN,dog,clock,0.05,5497_nse_dnn_0.05_clock_10_n04548280_2321.JPEG
googlenet,5,378,NaN,clock,clock,0.05,5498_nse_dnn_0.05_clock_10_n03196217_8706.JPEG
googlenet,5,379,NaN,clock,clock,0.05,5499_nse_dnn_0.05_clock_10_n03196217_7985.JPEG
googlenet,5,380,NaN,clock,clock,0.05,5500_nse_dnn_0.05_clock_10_n04548280_7087.JPEG
googlenet,5,381,NaN,chair,oven,0.05,5501_nse_dnn_0.05_oven_10_n04111531_114.JPEG
googlenet,5,382,NaN,airplane,oven,0.05,5502_nse_dnn_0.05_oven_10_n04111531_2213.JPEG
googlenet,5,383,NaN,elephant,oven,0.05,5503_nse_dnn_0.05_oven_10_n04111531_15416.JPEG
googlenet,5,384,NaN,dog,oven,0.05,5504_nse_dnn_0.05_oven_10_n04111531_1778.JPEG
googlenet,5,385,NaN,cat,oven,0.05,5505_nse_dnn_0.05_oven_10_n04111531_6211.JPEG
googlenet,5,386,NaN,chair,oven,0.05,5506_nse_dnn_0.05_oven_10_n04111531_1818.JPEG
googlenet,5,387,NaN,bear,oven,0.05,5507_nse_dnn_0.05_oven_10_n04111531_5694.JPEG
googlenet,5,388,NaN,truck,oven,0.05,5508_nse_dnn_0.05_oven_10_n04111531_891.JPEG
googlenet,5,389,NaN,oven,oven,0.05,5509_nse_dnn_0.05_oven_10_n04111531_538.JPEG
googlenet,5,390,NaN,oven,oven,0.05,5510_nse_dnn_0.05_oven_10_n04111531_15569.JPEG
googlenet,5,391,NaN,boat,chair,0.05,5511_nse_dnn_0.05_chair_10_n02791124_5287.JPEG
googlenet,5,392,NaN,chair,chair,0.05,5512_nse_dnn_0.05_chair_10_n02791124_2375.JPEG
googlenet,5,393,NaN,chair,chair,0.05,5513_nse_dnn_0.05_chair_10_n04429376_70.JPEG
googlenet,5,394,NaN,chair,chair,0.05,5514_nse_dnn_0.05_chair_10_n04429376_11771.JPEG
googlenet,5,395,NaN,chair,chair,0.05,5515_nse_dnn_0.05_chair_10_n04429376_2776.JPEG
googlenet,5,396,NaN,clock,chair,0.05,5516_nse_dnn_0.05_chair_10_n03376595_9974.JPEG
googlenet,5,397,NaN,chair,chair,0.05,5517_nse_dnn_0.05_chair_10_n02791124_6276.JPEG
googlenet,5,398,NaN,chair,chair,0.05,5518_nse_dnn_0.05_chair_10_n04099969_5343.JPEG
googlenet,5,399,NaN,bottle,chair,0.05,5519_nse_dnn_0.05_chair_10_n02791124_3011.JPEG
googlenet,5,400,NaN,truck,chair,0.05,5520_nse_dnn_0.05_chair_10_n04099969_5294.JPEG
googlenet,5,401,NaN,bear,bear,0.05,5521_nse_dnn_0.05_bear_10_n02134084_21179.JPEG
googlenet,5,402,NaN,dog,bear,0.05,5522_nse_dnn_0.05_bear_10_n02132136_4340.JPEG
googlenet,5,403,NaN,elephant,bear,0.05,5523_nse_dnn_0.05_bear_10_n02132136_2210.JPEG
googlenet,5,404,NaN,bear,bear,0.05,5524_nse_dnn_0.05_bear_10_n02133161_10649.JPEG
googlenet,5,405,NaN,bear,bear,0.05,5525_nse_dnn_0.05_bear_10_n02134418_1820.JPEG
googlenet,5,406,NaN,bear,bear,0.05,5526_nse_dnn_0.05_bear_10_n02134418_17.JPEG
googlenet,5,407,NaN,bear,bear,0.05,5527_nse_dnn_0.05_bear_10_n02132136_10281.JPEG
googlenet,5,408,NaN,cat,bear,0.05,5528_nse_dnn_0.05_bear_10_n02133161_14031.JPEG
googlenet,5,409,NaN,bear,bear,0.05,5529_nse_dnn_0.05_bear_10_n02133161_50.JPEG
googlenet,5,410,NaN,bear,bear,0.05,5530_nse_dnn_0.05_bear_10_n02132136_1717.JPEG
googlenet,5,411,NaN,bird,boat,0.05,5531_nse_dnn_0.05_boat_10_n02951358_29320.JPEG
googlenet,5,412,NaN,boat,boat,0.05,5532_nse_dnn_0.05_boat_10_n02951358_12432.JPEG
googlenet,5,413,NaN,chair,boat,0.05,5533_nse_dnn_0.05_boat_10_n04273569_26333.JPEG
googlenet,5,414,NaN,truck,boat,0.05,5534_nse_dnn_0.05_boat_10_n03662601_5968.JPEG
googlenet,5,415,NaN,bird,boat,0.05,5535_nse_dnn_0.05_boat_10_n02951358_4983.JPEG
googlenet,5,416,NaN,bird,boat,0.05,5536_nse_dnn_0.05_boat_10_n02951358_26150.JPEG
googlenet,5,417,NaN,boat,boat,0.05,5537_nse_dnn_0.05_boat_10_n02951358_14960.JPEG
googlenet,5,418,NaN,boat,boat,0.05,5538_nse_dnn_0.05_boat_10_n04612504_17592.JPEG
googlenet,5,419,NaN,boat,boat,0.05,5539_nse_dnn_0.05_boat_10_n03344393_1814.JPEG
googlenet,5,420,NaN,chair,boat,0.05,5540_nse_dnn_0.05_boat_10_n02951358_11882.JPEG
googlenet,5,421,NaN,cat,cat,0.05,5541_nse_dnn_0.05_cat_10_n02123045_12844.JPEG
googlenet,5,422,NaN,dog,cat,0.05,5542_nse_dnn_0.05_cat_10_n02123597_2587.JPEG
googlenet,5,423,NaN,cat,cat,0.05,5543_nse_dnn_0.05_cat_10_n02123394_8227.JPEG
googlenet,5,424,NaN,cat,cat,0.05,5544_nse_dnn_0.05_cat_10_n02125311_29399.JPEG
googlenet,5,425,NaN,cat,cat,0.05,5545_nse_dnn_0.05_cat_10_n02123045_2757.JPEG
googlenet,5,426,NaN,dog,cat,0.05,5546_nse_dnn_0.05_cat_10_n02123159_7819.JPEG
googlenet,5,427,NaN,cat,cat,0.05,5547_nse_dnn_0.05_cat_10_n02123045_5830.JPEG
googlenet,5,428,NaN,cat,cat,0.05,5548_nse_dnn_0.05_cat_10_n02125311_13604.JPEG
googlenet,5,429,NaN,cat,cat,0.05,5549_nse_dnn_0.05_cat_10_n02123159_4476.JPEG
googlenet,5,430,NaN,cat,cat,0.05,5550_nse_dnn_0.05_cat_10_n02124075_8747.JPEG
googlenet,5,431,NaN,bottle,bottle,0.05,5551_nse_dnn_0.05_bottle_10_n03983396_2317.JPEG
googlenet,5,432,NaN,bear,bottle,0.05,5552_nse_dnn_0.05_bottle_10_n04579145_1537.JPEG
googlenet,5,433,NaN,bottle,bottle,0.05,5553_nse_dnn_0.05_bottle_10_n04560804_6375.JPEG
googlenet,5,434,NaN,bottle,bottle,0.05,5554_nse_dnn_0.05_bottle_10_n04560804_14699.JPEG
googlenet,5,435,NaN,elephant,bottle,0.05,5555_nse_dnn_0.05_bottle_10_n04557648_11205.JPEG
googlenet,5,436,NaN,clock,bottle,0.05,5556_nse_dnn_0.05_bottle_10_n04591713_957.JPEG
googlenet,5,437,NaN,bottle,bottle,0.05,5557_nse_dnn_0.05_bottle_10_n04557648_11023.JPEG
googlenet,5,438,NaN,bottle,bottle,0.05,5558_nse_dnn_0.05_bottle_10_n04560804_6546.JPEG
googlenet,5,439,NaN,bottle,bottle,0.05,5559_nse_dnn_0.05_bottle_10_n04579145_1338.JPEG
googlenet,5,440,NaN,bottle,bottle,0.05,5560_nse_dnn_0.05_bottle_10_n04591713_5505.JPEG
googlenet,5,441,NaN,truck,truck,0.05,5561_nse_dnn_0.05_truck_10_n03417042_5221.JPEG
googlenet,5,442,NaN,bottle,truck,0.05,5562_nse_dnn_0.05_truck_10_n03417042_2293.JPEG
googlenet,5,443,NaN,truck,truck,0.05,5563_nse_dnn_0.05_truck_10_n03417042_8275.JPEG
googlenet,5,444,NaN,clock,truck,0.05,5564_nse_dnn_0.05_truck_10_n04467665_69878.JPEG
googlenet,5,445,NaN,truck,truck,0.05,5565_nse_dnn_0.05_truck_10_n03417042_553.JPEG
googlenet,5,446,NaN,truck,truck,0.05,5566_nse_dnn_0.05_truck_10_n03417042_4349.JPEG
googlenet,5,447,NaN,truck,truck,0.05,5567_nse_dnn_0.05_truck_10_n03796401_94.JPEG
googlenet,5,448,NaN,truck,truck,0.05,5568_nse_dnn_0.05_truck_10_n04467665_1021.JPEG
googlenet,5,449,NaN,chair,truck,0.05,5569_nse_dnn_0.05_truck_10_n03796401_1393.JPEG
googlenet,5,450,NaN,clock,truck,0.05,5570_nse_dnn_0.05_truck_10_n03796401_18074.JPEG
googlenet,5,451,NaN,clock,car,0.05,5571_nse_dnn_0.05_car_10_n04285008_1795.JPEG
googlenet,5,452,NaN,car,car,0.05,5572_nse_dnn_0.05_car_10_n02814533_10202.JPEG
googlenet,5,453,NaN,truck,car,0.05,5573_nse_dnn_0.05_car_10_n02814533_44702.JPEG
googlenet,5,454,NaN,bottle,car,0.05,5574_nse_dnn_0.05_car_10_n04285008_10023.JPEG
googlenet,5,455,NaN,truck,car,0.05,5575_nse_dnn_0.05_car_10_n04285008_13642.JPEG
googlenet,5,456,NaN,bottle,car,0.05,5576_nse_dnn_0.05_car_10_n03100240_18019.JPEG
googlenet,5,457,NaN,car,car,0.05,5577_nse_dnn_0.05_car_10_n03100240_1520.JPEG
googlenet,5,458,NaN,car,car,0.05,5578_nse_dnn_0.05_car_10_n04285008_6440.JPEG
googlenet,5,459,NaN,car,car,0.05,5579_nse_dnn_0.05_car_10_n02814533_40956.JPEG
googlenet,5,460,NaN,car,car,0.05,5580_nse_dnn_0.05_car_10_n03100240_20584.JPEG
googlenet,5,461,NaN,cat,bird,0.05,5581_nse_dnn_0.05_bird_10_n02006656_2301.JPEG
googlenet,5,462,NaN,bird,bird,0.05,5582_nse_dnn_0.05_bird_10_n01824575_1378.JPEG
googlenet,5,463,NaN,bird,bird,0.05,5583_nse_dnn_0.05_bird_10_n02037110_3448.JPEG
googlenet,5,464,NaN,bird,bird,0.05,5584_nse_dnn_0.05_bird_10_n02002724_12378.JPEG
googlenet,5,465,NaN,clock,bird,0.05,5585_nse_dnn_0.05_bird_10_n01818515_69.JPEG
googlenet,5,466,NaN,bird,bird,0.05,5586_nse_dnn_0.05_bird_10_n02033041_16537.JPEG
googlenet,5,467,NaN,bird,bird,0.05,5587_nse_dnn_0.05_bird_10_n01797886_8301.JPEG
googlenet,5,468,NaN,bird,bird,0.05,5588_nse_dnn_0.05_bird_10_n01616318_5753.JPEG
googlenet,5,469,NaN,bird,bird,0.05,5589_nse_dnn_0.05_bird_10_n01798484_8267.JPEG
googlenet,5,470,NaN,clock,bird,0.05,5590_nse_dnn_0.05_bird_10_n02006656_13206.JPEG
googlenet,5,471,NaN,cat,dog,0.05,5591_nse_dnn_0.05_dog_10_n02091467_3757.JPEG
googlenet,5,472,NaN,dog,dog,0.05,5592_nse_dnn_0.05_dog_10_n02105251_417.JPEG
googlenet,5,473,NaN,dog,dog,0.05,5593_nse_dnn_0.05_dog_10_n02099267_4823.JPEG
googlenet,5,474,NaN,dog,dog,0.05,5594_nse_dnn_0.05_dog_10_n02094433_3785.JPEG
googlenet,5,475,NaN,dog,dog,0.05,5595_nse_dnn_0.05_dog_10_n02095570_8139.JPEG
googlenet,5,476,NaN,dog,dog,0.05,5596_nse_dnn_0.05_dog_10_n02105251_4878.JPEG
googlenet,5,477,NaN,bear,dog,0.05,5597_nse_dnn_0.05_dog_10_n02095314_6110.JPEG
googlenet,5,478,NaN,cat,dog,0.05,5598_nse_dnn_0.05_dog_10_n02107683_1274.JPEG
googlenet,5,479,NaN,elephant,dog,0.05,5599_nse_dnn_0.05_dog_10_n02088238_7181.JPEG
googlenet,5,480,NaN,dog,dog,0.05,5600_nse_dnn_0.05_dog_10_n02090379_6982.JPEG
googlenet,5,481,NaN,knife,knife,0.10,5601_nse_dnn_0.10_knife_10_n03041632_21477.JPEG
googlenet,5,482,NaN,cat,knife,0.10,5602_nse_dnn_0.10_knife_10_n03041632_24113.JPEG
googlenet,5,483,NaN,cat,knife,0.10,5603_nse_dnn_0.10_knife_10_n03041632_10109.JPEG
googlenet,5,484,NaN,chair,knife,0.10,5604_nse_dnn_0.10_knife_10_n03041632_22988.JPEG
googlenet,5,485,NaN,bottle,knife,0.10,5605_nse_dnn_0.10_knife_10_n03041632_12707.JPEG
googlenet,5,486,NaN,clock,knife,0.10,5606_nse_dnn_0.10_knife_10_n03041632_2390.JPEG
googlenet,5,487,NaN,knife,knife,0.10,5607_nse_dnn_0.10_knife_10_n03041632_131.JPEG
googlenet,5,488,NaN,cat,knife,0.10,5608_nse_dnn_0.10_knife_10_n03041632_17067.JPEG
googlenet,5,489,NaN,cat,knife,0.10,5609_nse_dnn_0.10_knife_10_n03041632_37949.JPEG
googlenet,5,490,NaN,dog,knife,0.10,5610_nse_dnn_0.10_knife_10_n03041632_86554.JPEG
googlenet,5,491,NaN,dog,keyboard,0.10,5611_nse_dnn_0.10_keyboard_10_n04505470_4419.JPEG
googlenet,5,492,NaN,knife,keyboard,0.10,5612_nse_dnn_0.10_keyboard_10_n04505470_46.JPEG
googlenet,5,493,NaN,chair,keyboard,0.10,5613_nse_dnn_0.10_keyboard_10_n03085013_24265.JPEG
googlenet,5,494,NaN,bottle,keyboard,0.10,5614_nse_dnn_0.10_keyboard_10_n03085013_4600.JPEG
googlenet,5,495,NaN,bottle,keyboard,0.10,5615_nse_dnn_0.10_keyboard_10_n03085013_21070.JPEG
googlenet,5,496,NaN,chair,keyboard,0.10,5616_nse_dnn_0.10_keyboard_10_n04505470_7021.JPEG
googlenet,5,497,NaN,keyboard,keyboard,0.10,5617_nse_dnn_0.10_keyboard_10_n04505470_7686.JPEG
googlenet,5,498,NaN,bottle,keyboard,0.10,5618_nse_dnn_0.10_keyboard_10_n04505470_4358.JPEG
googlenet,5,499,NaN,bottle,keyboard,0.10,5619_nse_dnn_0.10_keyboard_10_n03085013_23485.JPEG
googlenet,5,500,NaN,dog,keyboard,0.10,5620_nse_dnn_0.10_keyboard_10_n04505470_186.JPEG
googlenet,5,501,NaN,bird,elephant,0.10,5621_nse_dnn_0.10_elephant_10_n02504458_361.JPEG
googlenet,5,502,NaN,elephant,elephant,0.10,5622_nse_dnn_0.10_elephant_10_n02504458_964.JPEG
googlenet,5,503,NaN,elephant,elephant,0.10,5623_nse_dnn_0.10_elephant_10_n02504458_10428.JPEG
googlenet,5,504,NaN,clock,elephant,0.10,5624_nse_dnn_0.10_elephant_10_n02504458_6583.JPEG
googlenet,5,505,NaN,elephant,elephant,0.10,5625_nse_dnn_0.10_elephant_10_n02504458_341.JPEG
googlenet,5,506,NaN,elephant,elephant,0.10,5626_nse_dnn_0.10_elephant_10_n02504013_5910.JPEG
googlenet,5,507,NaN,bear,elephant,0.10,5627_nse_dnn_0.10_elephant_10_n02504013_1708.JPEG
googlenet,5,508,NaN,elephant,elephant,0.10,5628_nse_dnn_0.10_elephant_10_n02504013_5859.JPEG
googlenet,5,509,NaN,elephant,elephant,0.10,5629_nse_dnn_0.10_elephant_10_n02504013_3493.JPEG
googlenet,5,510,NaN,dog,elephant,0.10,5630_nse_dnn_0.10_elephant_10_n02504458_2399.JPEG
googlenet,5,511,NaN,bicycle,bicycle,0.10,5631_nse_dnn_0.10_bicycle_10_n03792782_11804.JPEG
googlenet,5,512,NaN,car,bicycle,0.10,5632_nse_dnn_0.10_bicycle_10_n03792782_5629.JPEG
googlenet,5,513,NaN,elephant,bicycle,0.10,5633_nse_dnn_0.10_bicycle_10_n03792782_7764.JPEG
googlenet,5,514,NaN,dog,bicycle,0.10,5634_nse_dnn_0.10_bicycle_10_n02835271_7922.JPEG
googlenet,5,515,NaN,chair,bicycle,0.10,5635_nse_dnn_0.10_bicycle_10_n02835271_8573.JPEG
googlenet,5,516,NaN,bird,bicycle,0.10,5636_nse_dnn_0.10_bicycle_10_n02835271_8648.JPEG
googlenet,5,517,NaN,bottle,bicycle,0.10,5637_nse_dnn_0.10_bicycle_10_n03792782_11350.JPEG
googlenet,5,518,NaN,bear,bicycle,0.10,5638_nse_dnn_0.10_bicycle_10_n03792782_1105.JPEG
googlenet,5,519,NaN,cat,bicycle,0.10,5639_nse_dnn_0.10_bicycle_10_n03792782_9354.JPEG
googlenet,5,520,NaN,bird,bicycle,0.10,5640_nse_dnn_0.10_bicycle_10_n02835271_840.JPEG
googlenet,5,521,NaN,airplane,airplane,0.10,5641_nse_dnn_0.10_airplane_10_n02690373_787.JPEG
googlenet,5,522,NaN,clock,airplane,0.10,5642_nse_dnn_0.10_airplane_10_n02690373_6854.JPEG
googlenet,5,523,NaN,bird,airplane,0.10,5643_nse_dnn_0.10_airplane_10_n02690373_1363.JPEG
googlenet,5,524,NaN,bottle,airplane,0.10,5644_nse_dnn_0.10_airplane_10_n02690373_7489.JPEG
googlenet,5,525,NaN,knife,airplane,0.10,5645_nse_dnn_0.10_airplane_10_n02690373_3440.JPEG
googlenet,5,526,NaN,airplane,airplane,0.10,5646_nse_dnn_0.10_airplane_10_n02690373_3709.JPEG
googlenet,5,527,NaN,bird,airplane,0.10,5647_nse_dnn_0.10_airplane_10_n02690373_2561.JPEG
googlenet,5,528,NaN,bird,airplane,0.10,5648_nse_dnn_0.10_airplane_10_n02690373_1418.JPEG
googlenet,5,529,NaN,bird,airplane,0.10,5649_nse_dnn_0.10_airplane_10_n02690373_3818.JPEG
googlenet,5,530,NaN,bottle,airplane,0.10,5650_nse_dnn_0.10_airplane_10_n02690373_17011.JPEG
googlenet,5,531,NaN,clock,clock,0.10,5651_nse_dnn_0.10_clock_10_n04548280_6159.JPEG
googlenet,5,532,NaN,clock,clock,0.10,5652_nse_dnn_0.10_clock_10_n02708093_3691.JPEG
googlenet,5,533,NaN,clock,clock,0.10,5653_nse_dnn_0.10_clock_10_n02708093_3566.JPEG
googlenet,5,534,NaN,clock,clock,0.10,5654_nse_dnn_0.10_clock_10_n04548280_2362.JPEG
googlenet,5,535,NaN,bird,clock,0.10,5655_nse_dnn_0.10_clock_10_n04548280_3614.JPEG
googlenet,5,536,NaN,clock,clock,0.10,5656_nse_dnn_0.10_clock_10_n02708093_57.JPEG
googlenet,5,537,NaN,cat,clock,0.10,5657_nse_dnn_0.10_clock_10_n04548280_3156.JPEG
googlenet,5,538,NaN,chair,clock,0.10,5658_nse_dnn_0.10_clock_10_n04548280_3827.JPEG
googlenet,5,539,NaN,clock,clock,0.10,5659_nse_dnn_0.10_clock_10_n04548280_5692.JPEG
googlenet,5,540,NaN,clock,clock,0.10,5660_nse_dnn_0.10_clock_10_n03196217_4527.JPEG
googlenet,5,541,NaN,dog,oven,0.10,5661_nse_dnn_0.10_oven_10_n04111531_4327.JPEG
googlenet,5,542,NaN,cat,oven,0.10,5662_nse_dnn_0.10_oven_10_n04111531_8344.JPEG
googlenet,5,543,NaN,cat,oven,0.10,5663_nse_dnn_0.10_oven_10_n04111531_1815.JPEG
googlenet,5,544,NaN,cat,oven,0.10,5664_nse_dnn_0.10_oven_10_n04111531_7356.JPEG
googlenet,5,545,NaN,cat,oven,0.10,5665_nse_dnn_0.10_oven_10_n04111531_14690.JPEG
googlenet,5,546,NaN,clock,oven,0.10,5666_nse_dnn_0.10_oven_10_n04111531_7945.JPEG
googlenet,5,547,NaN,chair,oven,0.10,5667_nse_dnn_0.10_oven_10_n04111531_4671.JPEG
googlenet,5,548,NaN,chair,oven,0.10,5668_nse_dnn_0.10_oven_10_n04111531_2201.JPEG
googlenet,5,549,NaN,clock,oven,0.10,5669_nse_dnn_0.10_oven_10_n04111531_22120.JPEG
googlenet,5,550,NaN,chair,oven,0.10,5670_nse_dnn_0.10_oven_10_n04111531_2163.JPEG
googlenet,5,551,NaN,cat,chair,0.10,5671_nse_dnn_0.10_chair_10_n04099969_6398.JPEG
googlenet,5,552,NaN,clock,chair,0.10,5672_nse_dnn_0.10_chair_10_n04429376_1058.JPEG
googlenet,5,553,NaN,chair,chair,0.10,5673_nse_dnn_0.10_chair_10_n03376595_13596.JPEG
googlenet,5,554,NaN,chair,chair,0.10,5674_nse_dnn_0.10_chair_10_n03376595_9099.JPEG
googlenet,5,555,NaN,chair,chair,0.10,5675_nse_dnn_0.10_chair_10_n03376595_6514.JPEG
googlenet,5,556,NaN,clock,chair,0.10,5676_nse_dnn_0.10_chair_10_n03376595_9158.JPEG
googlenet,5,557,NaN,chair,chair,0.10,5677_nse_dnn_0.10_chair_10_n04099969_9152.JPEG
googlenet,5,558,NaN,elephant,chair,0.10,5678_nse_dnn_0.10_chair_10_n04429376_7439.JPEG
googlenet,5,559,NaN,chair,chair,0.10,5679_nse_dnn_0.10_chair_10_n03376595_678.JPEG
googlenet,5,560,NaN,chair,chair,0.10,5680_nse_dnn_0.10_chair_10_n02791124_1578.JPEG
googlenet,5,561,NaN,dog,bear,0.10,5681_nse_dnn_0.10_bear_10_n02133161_955.JPEG
googlenet,5,562,NaN,cat,bear,0.10,5682_nse_dnn_0.10_bear_10_n02134084_21718.JPEG
googlenet,5,563,NaN,bird,bear,0.10,5683_nse_dnn_0.10_bear_10_n02134418_5792.JPEG
googlenet,5,564,NaN,bear,bear,0.10,5684_nse_dnn_0.10_bear_10_n02134084_5084.JPEG
googlenet,5,565,NaN,dog,bear,0.10,5685_nse_dnn_0.10_bear_10_n02132136_3724.JPEG
googlenet,5,566,NaN,clock,bear,0.10,5686_nse_dnn_0.10_bear_10_n02133161_15473.JPEG
googlenet,5,567,NaN,cat,bear,0.10,5687_nse_dnn_0.10_bear_10_n02133161_13105.JPEG
googlenet,5,568,NaN,bear,bear,0.10,5688_nse_dnn_0.10_bear_10_n02134418_200.JPEG
googlenet,5,569,NaN,bear,bear,0.10,5689_nse_dnn_0.10_bear_10_n02134418_5848.JPEG
googlenet,5,570,NaN,bear,bear,0.10,5690_nse_dnn_0.10_bear_10_n02134084_8095.JPEG
googlenet,5,571,NaN,dog,boat,0.10,5691_nse_dnn_0.10_boat_10_n04612504_12268.JPEG
googlenet,5,572,NaN,bird,boat,0.10,5692_nse_dnn_0.10_boat_10_n03662601_17647.JPEG
googlenet,5,573,NaN,bottle,boat,0.10,5693_nse_dnn_0.10_boat_10_n03662601_29691.JPEG
googlenet,5,574,NaN,bottle,boat,0.10,5694_nse_dnn_0.10_boat_10_n02951358_29341.JPEG
googlenet,5,575,NaN,bird,boat,0.10,5695_nse_dnn_0.10_boat_10_n03344393_6533.JPEG
googlenet,5,576,NaN,bird,boat,0.10,5696_nse_dnn_0.10_boat_10_n04612504_18954.JPEG
googlenet,5,577,NaN,chair,boat,0.10,5697_nse_dnn_0.10_boat_10_n03662601_1650.JPEG
googlenet,5,578,NaN,dog,boat,0.10,5698_nse_dnn_0.10_boat_10_n04612504_14176.JPEG
googlenet,5,579,NaN,bottle,boat,0.10,5699_nse_dnn_0.10_boat_10_n04273569_229.JPEG
googlenet,5,580,NaN,bird,boat,0.10,5700_nse_dnn_0.10_boat_10_n02951358_4910.JPEG
googlenet,5,581,NaN,cat,cat,0.10,5701_nse_dnn_0.10_cat_10_n02123045_12327.JPEG
googlenet,5,582,NaN,cat,cat,0.10,5702_nse_dnn_0.10_cat_10_n02125311_234.JPEG
googlenet,5,583,NaN,cat,cat,0.10,5703_nse_dnn_0.10_cat_10_n02123159_7177.JPEG
googlenet,5,584,NaN,bottle,cat,0.10,5704_nse_dnn_0.10_cat_10_n02123597_25775.JPEG
googlenet,5,585,NaN,cat,cat,0.10,5705_nse_dnn_0.10_cat_10_n02123045_12736.JPEG
googlenet,5,586,NaN,cat,cat,0.10,5706_nse_dnn_0.10_cat_10_n02123045_8948.JPEG
googlenet,5,587,NaN,cat,cat,0.10,5707_nse_dnn_0.10_cat_10_n02123394_623.JPEG
googlenet,5,588,NaN,cat,cat,0.10,5708_nse_dnn_0.10_cat_10_n02123045_2825.JPEG
googlenet,5,589,NaN,cat,cat,0.10,5709_nse_dnn_0.10_cat_10_n02123394_8676.JPEG
googlenet,5,590,NaN,cat,cat,0.10,5710_nse_dnn_0.10_cat_10_n02124075_10611.JPEG
googlenet,5,591,NaN,bottle,bottle,0.10,5711_nse_dnn_0.10_bottle_10_n04557648_6515.JPEG
googlenet,5,592,NaN,bottle,bottle,0.10,5712_nse_dnn_0.10_bottle_10_n03937543_5896.JPEG
googlenet,5,593,NaN,dog,bottle,0.10,5713_nse_dnn_0.10_bottle_10_n03937543_11576.JPEG
googlenet,5,594,NaN,bottle,bottle,0.10,5714_nse_dnn_0.10_bottle_10_n03983396_2926.JPEG
googlenet,5,595,NaN,cat,bottle,0.10,5715_nse_dnn_0.10_bottle_10_n04557648_10698.JPEG
googlenet,5,596,NaN,chair,bottle,0.10,5716_nse_dnn_0.10_bottle_10_n03983396_23471.JPEG
googlenet,5,597,NaN,bottle,bottle,0.10,5717_nse_dnn_0.10_bottle_10_n03983396_18783.JPEG
googlenet,5,598,NaN,bottle,bottle,0.10,5718_nse_dnn_0.10_bottle_10_n02823428_1245.JPEG
googlenet,5,599,NaN,elephant,bottle,0.10,5719_nse_dnn_0.10_bottle_10_n04557648_9910.JPEG
googlenet,5,600,NaN,bottle,bottle,0.10,5720_nse_dnn_0.10_bottle_10_n04557648_9375.JPEG
googlenet,5,601,NaN,chair,truck,0.10,5721_nse_dnn_0.10_truck_10_n03417042_7408.JPEG
googlenet,5,602,NaN,cat,truck,0.10,5722_nse_dnn_0.10_truck_10_n04467665_23689.JPEG
googlenet,5,603,NaN,truck,truck,0.10,5723_nse_dnn_0.10_truck_10_n04467665_63788.JPEG
googlenet,5,604,NaN,dog,truck,0.10,5724_nse_dnn_0.10_truck_10_n03417042_2374.JPEG
googlenet,5,605,NaN,car,truck,0.10,5725_nse_dnn_0.10_truck_10_n03417042_6228.JPEG
googlenet,5,606,NaN,car,truck,0.10,5726_nse_dnn_0.10_truck_10_n03796401_7547.JPEG
googlenet,5,607,NaN,bottle,truck,0.10,5727_nse_dnn_0.10_truck_10_n04467665_46341.JPEG
googlenet,5,608,NaN,truck,truck,0.10,5728_nse_dnn_0.10_truck_10_n03417042_5997.JPEG
googlenet,5,609,NaN,clock,truck,0.10,5729_nse_dnn_0.10_truck_10_n03417042_13755.JPEG
googlenet,5,610,NaN,cat,truck,0.10,5730_nse_dnn_0.10_truck_10_n04467665_34030.JPEG
googlenet,5,611,NaN,boat,car,0.10,5731_nse_dnn_0.10_car_10_n03100240_10244.JPEG
googlenet,5,612,NaN,car,car,0.10,5732_nse_dnn_0.10_car_10_n03100240_976.JPEG
googlenet,5,613,NaN,bottle,car,0.10,5733_nse_dnn_0.10_car_10_n04285008_10287.JPEG
googlenet,5,614,NaN,elephant,car,0.10,5734_nse_dnn_0.10_car_10_n02814533_7020.JPEG
googlenet,5,615,NaN,car,car,0.10,5735_nse_dnn_0.10_car_10_n02814533_41381.JPEG
googlenet,5,616,NaN,car,car,0.10,5736_nse_dnn_0.10_car_10_n03100240_8596.JPEG
googlenet,5,617,NaN,clock,car,0.10,5737_nse_dnn_0.10_car_10_n03100240_2503.JPEG
googlenet,5,618,NaN,bottle,car,0.10,5738_nse_dnn_0.10_car_10_n03100240_24420.JPEG
googlenet,5,619,NaN,clock,car,0.10,5739_nse_dnn_0.10_car_10_n02814533_86307.JPEG
googlenet,5,620,NaN,truck,car,0.10,5740_nse_dnn_0.10_car_10_n02814533_74720.JPEG
googlenet,5,621,NaN,clock,bird,0.10,5741_nse_dnn_0.10_bird_10_n01532829_1465.JPEG
googlenet,5,622,NaN,dog,bird,0.10,5742_nse_dnn_0.10_bird_10_n01531178_33351.JPEG
googlenet,5,623,NaN,bottle,bird,0.10,5743_nse_dnn_0.10_bird_10_n01833805_3358.JPEG
googlenet,5,624,NaN,bird,bird,0.10,5744_nse_dnn_0.10_bird_10_n02027492_9796.JPEG
googlenet,5,625,NaN,bird,bird,0.10,5745_nse_dnn_0.10_bird_10_n01843065_2302.JPEG
googlenet,5,626,NaN,bear,bird,0.10,5746_nse_dnn_0.10_bird_10_n01860187_24397.JPEG
googlenet,5,627,NaN,bottle,bird,0.10,5747_nse_dnn_0.10_bird_10_n01818515_5714.JPEG
googlenet,5,628,NaN,chair,bird,0.10,5748_nse_dnn_0.10_bird_10_n01514859_17186.JPEG
googlenet,5,629,NaN,dog,bird,0.10,5749_nse_dnn_0.10_bird_10_n01795545_6673.JPEG
googlenet,5,630,NaN,chair,bird,0.10,5750_nse_dnn_0.10_bird_10_n01592084_22801.JPEG
googlenet,5,631,NaN,bear,dog,0.10,5751_nse_dnn_0.10_dog_10_n02090721_7057.JPEG
googlenet,5,632,NaN,cat,dog,0.10,5752_nse_dnn_0.10_dog_10_n02102318_9396.JPEG
googlenet,5,633,NaN,dog,dog,0.10,5753_nse_dnn_0.10_dog_10_n02096437_1387.JPEG
googlenet,5,634,NaN,cat,dog,0.10,5754_nse_dnn_0.10_dog_10_n02097658_4978.JPEG
googlenet,5,635,NaN,dog,dog,0.10,5755_nse_dnn_0.10_dog_10_n02106550_285.JPEG
googlenet,5,636,NaN,dog,dog,0.10,5756_nse_dnn_0.10_dog_10_n02099712_4228.JPEG
googlenet,5,637,NaN,dog,dog,0.10,5757_nse_dnn_0.10_dog_10_n02108000_6966.JPEG
googlenet,5,638,NaN,dog,dog,0.10,5758_nse_dnn_0.10_dog_10_n02111277_52901.JPEG
googlenet,5,639,NaN,dog,dog,0.10,5759_nse_dnn_0.10_dog_10_n02095570_3960.JPEG
googlenet,5,640,NaN,dog,dog,0.10,5760_nse_dnn_0.10_dog_10_n02093647_7661.JPEG
googlenet,5,641,NaN,bottle,knife,0.20,5761_nse_dnn_0.20_knife_10_n03041632_4269.JPEG
googlenet,5,642,NaN,bottle,knife,0.20,5762_nse_dnn_0.20_knife_10_n03041632_10136.JPEG
googlenet,5,643,NaN,cat,knife,0.20,5763_nse_dnn_0.20_knife_10_n03041632_82197.JPEG
googlenet,5,644,NaN,bird,knife,0.20,5764_nse_dnn_0.20_knife_10_n03041632_13509.JPEG
googlenet,5,645,NaN,bottle,knife,0.20,5765_nse_dnn_0.20_knife_10_n03041632_31363.JPEG
googlenet,5,646,NaN,dog,knife,0.20,5766_nse_dnn_0.20_knife_10_n03041632_15431.JPEG
googlenet,5,647,NaN,dog,knife,0.20,5767_nse_dnn_0.20_knife_10_n03041632_53874.JPEG
googlenet,5,648,NaN,bottle,knife,0.20,5768_nse_dnn_0.20_knife_10_n03041632_289.JPEG
googlenet,5,649,NaN,cat,knife,0.20,5769_nse_dnn_0.20_knife_10_n03041632_42185.JPEG
googlenet,5,650,NaN,bottle,knife,0.20,5770_nse_dnn_0.20_knife_10_n03041632_51581.JPEG
googlenet,5,651,NaN,cat,keyboard,0.20,5771_nse_dnn_0.20_keyboard_10_n03085013_3607.JPEG
googlenet,5,652,NaN,cat,keyboard,0.20,5772_nse_dnn_0.20_keyboard_10_n04505470_6426.JPEG
googlenet,5,653,NaN,dog,keyboard,0.20,5773_nse_dnn_0.20_keyboard_10_n03085013_19054.JPEG
googlenet,5,654,NaN,dog,keyboard,0.20,5774_nse_dnn_0.20_keyboard_10_n03085013_20792.JPEG
googlenet,5,655,NaN,bottle,keyboard,0.20,5775_nse_dnn_0.20_keyboard_10_n04505470_8828.JPEG
googlenet,5,656,NaN,cat,keyboard,0.20,5776_nse_dnn_0.20_keyboard_10_n03085013_108.JPEG
googlenet,5,657,NaN,bottle,keyboard,0.20,5777_nse_dnn_0.20_keyboard_10_n04505470_10191.JPEG
googlenet,5,658,NaN,bottle,keyboard,0.20,5778_nse_dnn_0.20_keyboard_10_n04505470_5059.JPEG
googlenet,5,659,NaN,chair,keyboard,0.20,5779_nse_dnn_0.20_keyboard_10_n04505470_10722.JPEG
googlenet,5,660,NaN,chair,keyboard,0.20,5780_nse_dnn_0.20_keyboard_10_n03085013_23672.JPEG
googlenet,5,661,NaN,elephant,elephant,0.20,5781_nse_dnn_0.20_elephant_10_n02504013_2558.JPEG
googlenet,5,662,NaN,bird,elephant,0.20,5782_nse_dnn_0.20_elephant_10_n02504013_2736.JPEG
googlenet,5,663,NaN,elephant,elephant,0.20,5783_nse_dnn_0.20_elephant_10_n02504013_1165.JPEG
googlenet,5,664,NaN,bear,elephant,0.20,5784_nse_dnn_0.20_elephant_10_n02504458_4002.JPEG
googlenet,5,665,NaN,bottle,elephant,0.20,5785_nse_dnn_0.20_elephant_10_n02504458_8994.JPEG
googlenet,5,666,NaN,dog,elephant,0.20,5786_nse_dnn_0.20_elephant_10_n02504458_4395.JPEG
googlenet,5,667,NaN,bird,elephant,0.20,5787_nse_dnn_0.20_elephant_10_n02504013_2233.JPEG
googlenet,5,668,NaN,dog,elephant,0.20,5788_nse_dnn_0.20_elephant_10_n02504013_2856.JPEG
googlenet,5,669,NaN,dog,elephant,0.20,5789_nse_dnn_0.20_elephant_10_n02504013_3821.JPEG
googlenet,5,670,NaN,dog,elephant,0.20,5790_nse_dnn_0.20_elephant_10_n02504013_1187.JPEG
googlenet,5,671,NaN,dog,bicycle,0.20,5791_nse_dnn_0.20_bicycle_10_n03792782_24838.JPEG
googlenet,5,672,NaN,bird,bicycle,0.20,5792_nse_dnn_0.20_bicycle_10_n03792782_2364.JPEG
googlenet,5,673,NaN,clock,bicycle,0.20,5793_nse_dnn_0.20_bicycle_10_n02835271_3285.JPEG
googlenet,5,674,NaN,bottle,bicycle,0.20,5794_nse_dnn_0.20_bicycle_10_n03792782_7387.JPEG
googlenet,5,675,NaN,bottle,bicycle,0.20,5795_nse_dnn_0.20_bicycle_10_n02835271_27777.JPEG
googlenet,5,676,NaN,bird,bicycle,0.20,5796_nse_dnn_0.20_bicycle_10_n02835271_20004.JPEG
googlenet,5,677,NaN,bottle,bicycle,0.20,5797_nse_dnn_0.20_bicycle_10_n03792782_42131.JPEG
googlenet,5,678,NaN,bottle,bicycle,0.20,5798_nse_dnn_0.20_bicycle_10_n03792782_65779.JPEG
googlenet,5,679,NaN,bird,bicycle,0.20,5799_nse_dnn_0.20_bicycle_10_n02835271_14670.JPEG
googlenet,5,680,NaN,cat,bicycle,0.20,5800_nse_dnn_0.20_bicycle_10_n02835271_3804.JPEG
googlenet,5,681,NaN,bird,airplane,0.20,5801_nse_dnn_0.20_airplane_10_n02690373_1781.JPEG
googlenet,5,682,NaN,bird,airplane,0.20,5802_nse_dnn_0.20_airplane_10_n02690373_1074.JPEG
googlenet,5,683,NaN,bottle,airplane,0.20,5803_nse_dnn_0.20_airplane_10_n02690373_8417.JPEG
googlenet,5,684,NaN,bird,airplane,0.20,5804_nse_dnn_0.20_airplane_10_n02690373_4434.JPEG
googlenet,5,685,NaN,cat,airplane,0.20,5805_nse_dnn_0.20_airplane_10_n02690373_5184.JPEG
googlenet,5,686,NaN,bird,airplane,0.20,5806_nse_dnn_0.20_airplane_10_n02690373_9537.JPEG
googlenet,5,687,NaN,bottle,airplane,0.20,5807_nse_dnn_0.20_airplane_10_n02690373_9441.JPEG
googlenet,5,688,NaN,bottle,airplane,0.20,5808_nse_dnn_0.20_airplane_10_n02690373_2509.JPEG
googlenet,5,689,NaN,bottle,airplane,0.20,5809_nse_dnn_0.20_airplane_10_n02690373_5029.JPEG
googlenet,5,690,NaN,bottle,airplane,0.20,5810_nse_dnn_0.20_airplane_10_n02690373_5146.JPEG
googlenet,5,691,NaN,cat,clock,0.20,5811_nse_dnn_0.20_clock_10_n02708093_4569.JPEG
googlenet,5,692,NaN,bottle,clock,0.20,5812_nse_dnn_0.20_clock_10_n04548280_11597.JPEG
googlenet,5,693,NaN,bottle,clock,0.20,5813_nse_dnn_0.20_clock_10_n03196217_1021.JPEG
googlenet,5,694,NaN,chair,clock,0.20,5814_nse_dnn_0.20_clock_10_n02708093_496.JPEG
googlenet,5,695,NaN,bottle,clock,0.20,5815_nse_dnn_0.20_clock_10_n03196217_3352.JPEG
googlenet,5,696,NaN,bottle,clock,0.20,5816_nse_dnn_0.20_clock_10_n03196217_8190.JPEG
googlenet,5,697,NaN,cat,clock,0.20,5817_nse_dnn_0.20_clock_10_n03196217_6824.JPEG
googlenet,5,698,NaN,bottle,clock,0.20,5818_nse_dnn_0.20_clock_10_n04548280_4743.JPEG
googlenet,5,699,NaN,cat,clock,0.20,5819_nse_dnn_0.20_clock_10_n02708093_4964.JPEG
googlenet,5,700,NaN,chair,clock,0.20,5820_nse_dnn_0.20_clock_10_n03196217_10790.JPEG
googlenet,5,701,NaN,bird,oven,0.20,5821_nse_dnn_0.20_oven_10_n04111531_2051.JPEG
googlenet,5,702,NaN,bottle,oven,0.20,5822_nse_dnn_0.20_oven_10_n04111531_17917.JPEG
googlenet,5,703,NaN,clock,oven,0.20,5823_nse_dnn_0.20_oven_10_n04111531_690.JPEG
googlenet,5,704,NaN,cat,oven,0.20,5824_nse_dnn_0.20_oven_10_n04111531_21248.JPEG
googlenet,5,705,NaN,cat,oven,0.20,5825_nse_dnn_0.20_oven_10_n04111531_101.JPEG
googlenet,5,706,NaN,bottle,oven,0.20,5826_nse_dnn_0.20_oven_10_n04111531_8082.JPEG
googlenet,5,707,NaN,cat,oven,0.20,5827_nse_dnn_0.20_oven_10_n04111531_5204.JPEG
googlenet,5,708,NaN,bottle,oven,0.20,5828_nse_dnn_0.20_oven_10_n04111531_16161.JPEG
googlenet,5,709,NaN,bottle,oven,0.20,5829_nse_dnn_0.20_oven_10_n04111531_9297.JPEG
googlenet,5,710,NaN,bottle,oven,0.20,5830_nse_dnn_0.20_oven_10_n04111531_13809.JPEG
googlenet,5,711,NaN,bottle,chair,0.20,5831_nse_dnn_0.20_chair_10_n02791124_10783.JPEG
googlenet,5,712,NaN,chair,chair,0.20,5832_nse_dnn_0.20_chair_10_n03376595_18810.JPEG
googlenet,5,713,NaN,dog,chair,0.20,5833_nse_dnn_0.20_chair_10_n04429376_10341.JPEG
googlenet,5,714,NaN,bottle,chair,0.20,5834_nse_dnn_0.20_chair_10_n02791124_717.JPEG
googlenet,5,715,NaN,clock,chair,0.20,5835_nse_dnn_0.20_chair_10_n04099969_36004.JPEG
googlenet,5,716,NaN,clock,chair,0.20,5836_nse_dnn_0.20_chair_10_n02791124_4547.JPEG
googlenet,5,717,NaN,bottle,chair,0.20,5837_nse_dnn_0.20_chair_10_n03376595_3618.JPEG
googlenet,5,718,NaN,dog,chair,0.20,5838_nse_dnn_0.20_chair_10_n02791124_13951.JPEG
googlenet,5,719,NaN,dog,chair,0.20,5839_nse_dnn_0.20_chair_10_n04429376_11813.JPEG
googlenet,5,720,NaN,dog,chair,0.20,5840_nse_dnn_0.20_chair_10_n04099969_33075.JPEG
googlenet,5,721,NaN,dog,bear,0.20,5841_nse_dnn_0.20_bear_10_n02134084_7910.JPEG
googlenet,5,722,NaN,cat,bear,0.20,5842_nse_dnn_0.20_bear_10_n02132136_4426.JPEG
googlenet,5,723,NaN,bottle,bear,0.20,5843_nse_dnn_0.20_bear_10_n02134084_10112.JPEG
googlenet,5,724,NaN,cat,bear,0.20,5844_nse_dnn_0.20_bear_10_n02134418_2683.JPEG
googlenet,5,725,NaN,dog,bear,0.20,5845_nse_dnn_0.20_bear_10_n02133161_15463.JPEG
googlenet,5,726,NaN,dog,bear,0.20,5846_nse_dnn_0.20_bear_10_n02132136_1380.JPEG
googlenet,5,727,NaN,bottle,bear,0.20,5847_nse_dnn_0.20_bear_10_n02134418_557.JPEG
googlenet,5,728,NaN,bottle,bear,0.20,5848_nse_dnn_0.20_bear_10_n02132136_9703.JPEG
googlenet,5,729,NaN,bottle,bear,0.20,5849_nse_dnn_0.20_bear_10_n02134418_2553.JPEG
googlenet,5,730,NaN,clock,bear,0.20,5850_nse_dnn_0.20_bear_10_n02134084_2941.JPEG
googlenet,5,731,NaN,bird,boat,0.20,5851_nse_dnn_0.20_boat_10_n03662601_14940.JPEG
googlenet,5,732,NaN,bottle,boat,0.20,5852_nse_dnn_0.20_boat_10_n03344393_642.JPEG
googlenet,5,733,NaN,cat,boat,0.20,5853_nse_dnn_0.20_boat_10_n04273569_5891.JPEG
googlenet,5,734,NaN,cat,boat,0.20,5854_nse_dnn_0.20_boat_10_n04612504_2948.JPEG
googlenet,5,735,NaN,bottle,boat,0.20,5855_nse_dnn_0.20_boat_10_n02951358_14831.JPEG
googlenet,5,736,NaN,bird,boat,0.20,5856_nse_dnn_0.20_boat_10_n02951358_11549.JPEG
googlenet,5,737,NaN,bottle,boat,0.20,5857_nse_dnn_0.20_boat_10_n03662601_24713.JPEG
googlenet,5,738,NaN,bird,boat,0.20,5858_nse_dnn_0.20_boat_10_n02951358_4443.JPEG
googlenet,5,739,NaN,bottle,boat,0.20,5859_nse_dnn_0.20_boat_10_n02951358_12296.JPEG
googlenet,5,740,NaN,bottle,boat,0.20,5860_nse_dnn_0.20_boat_10_n03344393_7527.JPEG
googlenet,5,741,NaN,bottle,cat,0.20,5861_nse_dnn_0.20_cat_10_n02125311_5711.JPEG
googlenet,5,742,NaN,cat,cat,0.20,5862_nse_dnn_0.20_cat_10_n02123045_10118.JPEG
googlenet,5,743,NaN,dog,cat,0.20,5863_nse_dnn_0.20_cat_10_n02124075_1128.JPEG
googlenet,5,744,NaN,cat,cat,0.20,5864_nse_dnn_0.20_cat_10_n02123159_5904.JPEG
googlenet,5,745,NaN,bottle,cat,0.20,5865_nse_dnn_0.20_cat_10_n02124075_6380.JPEG
googlenet,5,746,NaN,bottle,cat,0.20,5866_nse_dnn_0.20_cat_10_n02124075_11725.JPEG
googlenet,5,747,NaN,bottle,cat,0.20,5867_nse_dnn_0.20_cat_10_n02123394_2771.JPEG
googlenet,5,748,NaN,cat,cat,0.20,5868_nse_dnn_0.20_cat_10_n02123597_6560.JPEG
googlenet,5,749,NaN,bottle,cat,0.20,5869_nse_dnn_0.20_cat_10_n02124075_183.JPEG
googlenet,5,750,NaN,bottle,cat,0.20,5870_nse_dnn_0.20_cat_10_n02123159_6764.JPEG
googlenet,5,751,NaN,cat,bottle,0.20,5871_nse_dnn_0.20_bottle_10_n04591713_1896.JPEG
googlenet,5,752,NaN,dog,bottle,0.20,5872_nse_dnn_0.20_bottle_10_n02823428_5305.JPEG
googlenet,5,753,NaN,dog,bottle,0.20,5873_nse_dnn_0.20_bottle_10_n04560804_3419.JPEG
googlenet,5,754,NaN,bottle,bottle,0.20,5874_nse_dnn_0.20_bottle_10_n03983396_5883.JPEG
googlenet,5,755,NaN,bottle,bottle,0.20,5875_nse_dnn_0.20_bottle_10_n04560804_29573.JPEG
googlenet,5,756,NaN,bottle,bottle,0.20,5876_nse_dnn_0.20_bottle_10_n04560804_19655.JPEG
googlenet,5,757,NaN,clock,bottle,0.20,5877_nse_dnn_0.20_bottle_10_n02823428_1602.JPEG
googlenet,5,758,NaN,bird,bottle,0.20,5878_nse_dnn_0.20_bottle_10_n04591713_591.JPEG
googlenet,5,759,NaN,dog,bottle,0.20,5879_nse_dnn_0.20_bottle_10_n04560804_4182.JPEG
googlenet,5,760,NaN,dog,bottle,0.20,5880_nse_dnn_0.20_bottle_10_n04557648_9101.JPEG
googlenet,5,761,NaN,clock,truck,0.20,5881_nse_dnn_0.20_truck_10_n04467665_69582.JPEG
googlenet,5,762,NaN,dog,truck,0.20,5882_nse_dnn_0.20_truck_10_n03796401_12606.JPEG
googlenet,5,763,NaN,bird,truck,0.20,5883_nse_dnn_0.20_truck_10_n03417042_303.JPEG
googlenet,5,764,NaN,chair,truck,0.20,5884_nse_dnn_0.20_truck_10_n03417042_5180.JPEG
googlenet,5,765,NaN,cat,truck,0.20,5885_nse_dnn_0.20_truck_10_n03417042_26713.JPEG
googlenet,5,766,NaN,bottle,truck,0.20,5886_nse_dnn_0.20_truck_10_n03417042_53.JPEG
googlenet,5,767,NaN,cat,truck,0.20,5887_nse_dnn_0.20_truck_10_n03417042_14717.JPEG
googlenet,5,768,NaN,cat,truck,0.20,5888_nse_dnn_0.20_truck_10_n03417042_6193.JPEG
googlenet,5,769,NaN,cat,truck,0.20,5889_nse_dnn_0.20_truck_10_n04467665_16069.JPEG
googlenet,5,770,NaN,chair,truck,0.20,5890_nse_dnn_0.20_truck_10_n03796401_4495.JPEG
googlenet,5,771,NaN,clock,car,0.20,5891_nse_dnn_0.20_car_10_n03100240_4173.JPEG
googlenet,5,772,NaN,cat,car,0.20,5892_nse_dnn_0.20_car_10_n03100240_16639.JPEG
googlenet,5,773,NaN,bird,car,0.20,5893_nse_dnn_0.20_car_10_n03100240_605.JPEG
googlenet,5,774,NaN,bird,car,0.20,5894_nse_dnn_0.20_car_10_n04285008_8495.JPEG
googlenet,5,775,NaN,bottle,car,0.20,5895_nse_dnn_0.20_car_10_n02814533_98738.JPEG
googlenet,5,776,NaN,cat,car,0.20,5896_nse_dnn_0.20_car_10_n04285008_3199.JPEG
googlenet,5,777,NaN,cat,car,0.20,5897_nse_dnn_0.20_car_10_n02814533_89559.JPEG
googlenet,5,778,NaN,elephant,car,0.20,5898_nse_dnn_0.20_car_10_n02814533_45050.JPEG
googlenet,5,779,NaN,cat,car,0.20,5899_nse_dnn_0.20_car_10_n03100240_2689.JPEG
googlenet,5,780,NaN,chair,car,0.20,5900_nse_dnn_0.20_car_10_n03100240_18792.JPEG
googlenet,5,781,NaN,cat,bird,0.20,5901_nse_dnn_0.20_bird_10_n01592084_7682.JPEG
googlenet,5,782,NaN,bottle,bird,0.20,5902_nse_dnn_0.20_bird_10_n01614925_7998.JPEG
googlenet,5,783,NaN,dog,bird,0.20,5903_nse_dnn_0.20_bird_10_n02018207_4189.JPEG
googlenet,5,784,NaN,bottle,bird,0.20,5904_nse_dnn_0.20_bird_10_n01592084_1205.JPEG
googlenet,5,785,NaN,bottle,bird,0.20,5905_nse_dnn_0.20_bird_10_n02025239_15807.JPEG
googlenet,5,786,NaN,bird,bird,0.20,5906_nse_dnn_0.20_bird_10_n02002724_7097.JPEG
googlenet,5,787,NaN,bottle,bird,0.20,5907_nse_dnn_0.20_bird_10_n02033041_5100.JPEG
googlenet,5,788,NaN,dog,bird,0.20,5908_nse_dnn_0.20_bird_10_n01798484_7631.JPEG
googlenet,5,789,NaN,bottle,bird,0.20,5909_nse_dnn_0.20_bird_10_n02017213_6651.JPEG
googlenet,5,790,NaN,chair,bird,0.20,5910_nse_dnn_0.20_bird_10_n02018207_5479.JPEG
googlenet,5,791,NaN,cat,dog,0.20,5911_nse_dnn_0.20_dog_10_n02106662_14247.JPEG
googlenet,5,792,NaN,cat,dog,0.20,5912_nse_dnn_0.20_dog_10_n02110806_25724.JPEG
googlenet,5,793,NaN,dog,dog,0.20,5913_nse_dnn_0.20_dog_10_n02113978_1939.JPEG
googlenet,5,794,NaN,dog,dog,0.20,5914_nse_dnn_0.20_dog_10_n02101006_2948.JPEG
googlenet,5,795,NaN,dog,dog,0.20,5915_nse_dnn_0.20_dog_10_n02110806_3911.JPEG
googlenet,5,796,NaN,dog,dog,0.20,5916_nse_dnn_0.20_dog_10_n02099601_735.JPEG
googlenet,5,797,NaN,bird,dog,0.20,5917_nse_dnn_0.20_dog_10_n02088238_3644.JPEG
googlenet,5,798,NaN,bottle,dog,0.20,5918_nse_dnn_0.20_dog_10_n02100583_6092.JPEG
googlenet,5,799,NaN,dog,dog,0.20,5919_nse_dnn_0.20_dog_10_n02100877_2691.JPEG
googlenet,5,800,NaN,clock,dog,0.20,5920_nse_dnn_0.20_dog_10_n02111500_785.JPEG
googlenet,5,801,NaN,bottle,knife,0.35,5921_nse_dnn_0.35_knife_10_n03041632_13203.JPEG
googlenet,5,802,NaN,bottle,knife,0.35,5922_nse_dnn_0.35_knife_10_n03041632_48151.JPEG
googlenet,5,803,NaN,bottle,knife,0.35,5923_nse_dnn_0.35_knife_10_n03041632_40530.JPEG
googlenet,5,804,NaN,bottle,knife,0.35,5924_nse_dnn_0.35_knife_10_n03041632_29337.JPEG
googlenet,5,805,NaN,dog,knife,0.35,5925_nse_dnn_0.35_knife_10_n03041632_13742.JPEG
googlenet,5,806,NaN,bottle,knife,0.35,5926_nse_dnn_0.35_knife_10_n03041632_30821.JPEG
googlenet,5,807,NaN,bottle,knife,0.35,5927_nse_dnn_0.35_knife_10_n03041632_36907.JPEG
googlenet,5,808,NaN,bird,knife,0.35,5928_nse_dnn_0.35_knife_10_n03041632_86783.JPEG
googlenet,5,809,NaN,bottle,knife,0.35,5929_nse_dnn_0.35_knife_10_n03041632_8151.JPEG
googlenet,5,810,NaN,bottle,knife,0.35,5930_nse_dnn_0.35_knife_10_n03041632_37513.JPEG
googlenet,5,811,NaN,bottle,keyboard,0.35,5931_nse_dnn_0.35_keyboard_10_n04505470_4803.JPEG
googlenet,5,812,NaN,clock,keyboard,0.35,5932_nse_dnn_0.35_keyboard_10_n03085013_23904.JPEG
googlenet,5,813,NaN,bottle,keyboard,0.35,5933_nse_dnn_0.35_keyboard_10_n03085013_19607.JPEG
googlenet,5,814,NaN,bottle,keyboard,0.35,5934_nse_dnn_0.35_keyboard_10_n03085013_21609.JPEG
googlenet,5,815,NaN,bird,keyboard,0.35,5935_nse_dnn_0.35_keyboard_10_n04505470_2115.JPEG
googlenet,5,816,NaN,bottle,keyboard,0.35,5936_nse_dnn_0.35_keyboard_10_n03085013_24161.JPEG
googlenet,5,817,NaN,bottle,keyboard,0.35,5937_nse_dnn_0.35_keyboard_10_n03085013_5751.JPEG
googlenet,5,818,NaN,bottle,keyboard,0.35,5938_nse_dnn_0.35_keyboard_10_n03085013_35084.JPEG
googlenet,5,819,NaN,bird,keyboard,0.35,5939_nse_dnn_0.35_keyboard_10_n04505470_5088.JPEG
googlenet,5,820,NaN,bottle,keyboard,0.35,5940_nse_dnn_0.35_keyboard_10_n03085013_24231.JPEG
googlenet,5,821,NaN,bottle,elephant,0.35,5941_nse_dnn_0.35_elephant_10_n02504458_6368.JPEG
googlenet,5,822,NaN,bottle,elephant,0.35,5942_nse_dnn_0.35_elephant_10_n02504013_2583.JPEG
googlenet,5,823,NaN,bottle,elephant,0.35,5943_nse_dnn_0.35_elephant_10_n02504458_11383.JPEG
googlenet,5,824,NaN,bottle,elephant,0.35,5944_nse_dnn_0.35_elephant_10_n02504458_11353.JPEG
googlenet,5,825,NaN,bottle,elephant,0.35,5945_nse_dnn_0.35_elephant_10_n02504013_9775.JPEG
googlenet,5,826,NaN,bottle,elephant,0.35,5946_nse_dnn_0.35_elephant_10_n02504013_1602.JPEG
googlenet,5,827,NaN,bottle,elephant,0.35,5947_nse_dnn_0.35_elephant_10_n02504458_7871.JPEG
googlenet,5,828,NaN,bottle,elephant,0.35,5948_nse_dnn_0.35_elephant_10_n02504458_4667.JPEG
googlenet,5,829,NaN,bottle,elephant,0.35,5949_nse_dnn_0.35_elephant_10_n02504013_2984.JPEG
googlenet,5,830,NaN,bottle,elephant,0.35,5950_nse_dnn_0.35_elephant_10_n02504458_7408.JPEG
googlenet,5,831,NaN,clock,bicycle,0.35,5951_nse_dnn_0.35_bicycle_10_n02835271_15501.JPEG
googlenet,5,832,NaN,bird,bicycle,0.35,5952_nse_dnn_0.35_bicycle_10_n02835271_21396.JPEG
googlenet,5,833,NaN,clock,bicycle,0.35,5953_nse_dnn_0.35_bicycle_10_n02835271_16768.JPEG
googlenet,5,834,NaN,bottle,bicycle,0.35,5954_nse_dnn_0.35_bicycle_10_n02835271_7311.JPEG
googlenet,5,835,NaN,bottle,bicycle,0.35,5955_nse_dnn_0.35_bicycle_10_n03792782_7518.JPEG
googlenet,5,836,NaN,bottle,bicycle,0.35,5956_nse_dnn_0.35_bicycle_10_n03792782_5009.JPEG
googlenet,5,837,NaN,bottle,bicycle,0.35,5957_nse_dnn_0.35_bicycle_10_n02835271_7476.JPEG
googlenet,5,838,NaN,bird,bicycle,0.35,5958_nse_dnn_0.35_bicycle_10_n02835271_21464.JPEG
googlenet,5,839,NaN,bottle,bicycle,0.35,5959_nse_dnn_0.35_bicycle_10_n03792782_51686.JPEG
googlenet,5,840,NaN,bottle,bicycle,0.35,5960_nse_dnn_0.35_bicycle_10_n03792782_49395.JPEG
googlenet,5,841,NaN,bottle,airplane,0.35,5961_nse_dnn_0.35_airplane_10_n02690373_9802.JPEG
googlenet,5,842,NaN,bottle,airplane,0.35,5962_nse_dnn_0.35_airplane_10_n02690373_9322.JPEG
googlenet,5,843,NaN,bottle,airplane,0.35,5963_nse_dnn_0.35_airplane_10_n02690373_1751.JPEG
googlenet,5,844,NaN,bottle,airplane,0.35,5964_nse_dnn_0.35_airplane_10_n02690373_7046.JPEG
googlenet,5,845,NaN,bottle,airplane,0.35,5965_nse_dnn_0.35_airplane_10_n02690373_8454.JPEG
googlenet,5,846,NaN,bottle,airplane,0.35,5966_nse_dnn_0.35_airplane_10_n02690373_4452.JPEG
googlenet,5,847,NaN,bottle,airplane,0.35,5967_nse_dnn_0.35_airplane_10_n02690373_2042.JPEG
googlenet,5,848,NaN,bottle,airplane,0.35,5968_nse_dnn_0.35_airplane_10_n02690373_2598.JPEG
googlenet,5,849,NaN,bottle,airplane,0.35,5969_nse_dnn_0.35_airplane_10_n02690373_2408.JPEG
googlenet,5,850,NaN,bottle,airplane,0.35,5970_nse_dnn_0.35_airplane_10_n02690373_220.JPEG
googlenet,5,851,NaN,elephant,clock,0.35,5971_nse_dnn_0.35_clock_10_n04548280_6968.JPEG
googlenet,5,852,NaN,bird,clock,0.35,5972_nse_dnn_0.35_clock_10_n04548280_6200.JPEG
googlenet,5,853,NaN,bottle,clock,0.35,5973_nse_dnn_0.35_clock_10_n02708093_3750.JPEG
googlenet,5,854,NaN,bottle,clock,0.35,5974_nse_dnn_0.35_clock_10_n04548280_9828.JPEG
googlenet,5,855,NaN,bird,clock,0.35,5975_nse_dnn_0.35_clock_10_n04548280_5301.JPEG
googlenet,5,856,NaN,bottle,clock,0.35,5976_nse_dnn_0.35_clock_10_n03196217_1364.JPEG
googlenet,5,857,NaN,bottle,clock,0.35,5977_nse_dnn_0.35_clock_10_n04548280_1194.JPEG
googlenet,5,858,NaN,bottle,clock,0.35,5978_nse_dnn_0.35_clock_10_n03196217_11063.JPEG
googlenet,5,859,NaN,bottle,clock,0.35,5979_nse_dnn_0.35_clock_10_n02708093_2469.JPEG
googlenet,5,860,NaN,bottle,clock,0.35,5980_nse_dnn_0.35_clock_10_n04548280_8454.JPEG
googlenet,5,861,NaN,bottle,oven,0.35,5981_nse_dnn_0.35_oven_10_n04111531_6704.JPEG
googlenet,5,862,NaN,bottle,oven,0.35,5982_nse_dnn_0.35_oven_10_n04111531_10358.JPEG
googlenet,5,863,NaN,bottle,oven,0.35,5983_nse_dnn_0.35_oven_10_n04111531_14804.JPEG
googlenet,5,864,NaN,bottle,oven,0.35,5984_nse_dnn_0.35_oven_10_n04111531_30110.JPEG
googlenet,5,865,NaN,dog,oven,0.35,5985_nse_dnn_0.35_oven_10_n04111531_5727.JPEG
googlenet,5,866,NaN,bottle,oven,0.35,5986_nse_dnn_0.35_oven_10_n04111531_10476.JPEG
googlenet,5,867,NaN,bottle,oven,0.35,5987_nse_dnn_0.35_oven_10_n04111531_15627.JPEG
googlenet,5,868,NaN,bottle,oven,0.35,5988_nse_dnn_0.35_oven_10_n04111531_6387.JPEG
googlenet,5,869,NaN,bottle,oven,0.35,5989_nse_dnn_0.35_oven_10_n04111531_4332.JPEG
googlenet,5,870,NaN,bottle,oven,0.35,5990_nse_dnn_0.35_oven_10_n04111531_669.JPEG
googlenet,5,871,NaN,bottle,chair,0.35,5991_nse_dnn_0.35_chair_10_n03376595_2398.JPEG
googlenet,5,872,NaN,bird,chair,0.35,5992_nse_dnn_0.35_chair_10_n02791124_1128.JPEG
googlenet,5,873,NaN,bottle,chair,0.35,5993_nse_dnn_0.35_chair_10_n02791124_9736.JPEG
googlenet,5,874,NaN,bottle,chair,0.35,5994_nse_dnn_0.35_chair_10_n04099969_18016.JPEG
googlenet,5,875,NaN,bottle,chair,0.35,5995_nse_dnn_0.35_chair_10_n04429376_29125.JPEG
googlenet,5,876,NaN,bottle,chair,0.35,5996_nse_dnn_0.35_chair_10_n04099969_6293.JPEG
googlenet,5,877,NaN,bottle,chair,0.35,5997_nse_dnn_0.35_chair_10_n04099969_25124.JPEG
googlenet,5,878,NaN,dog,chair,0.35,5998_nse_dnn_0.35_chair_10_n04099969_15657.JPEG
googlenet,5,879,NaN,bottle,chair,0.35,5999_nse_dnn_0.35_chair_10_n03376595_17093.JPEG
googlenet,5,880,NaN,bottle,chair,0.35,6000_nse_dnn_0.35_chair_10_n04099969_8049.JPEG
googlenet,5,881,NaN,bottle,bear,0.35,6001_nse_dnn_0.35_bear_10_n02133161_8661.JPEG
googlenet,5,882,NaN,bottle,bear,0.35,6002_nse_dnn_0.35_bear_10_n02133161_5376.JPEG
googlenet,5,883,NaN,bottle,bear,0.35,6003_nse_dnn_0.35_bear_10_n02132136_7718.JPEG
googlenet,5,884,NaN,bottle,bear,0.35,6004_nse_dnn_0.35_bear_10_n02132136_6947.JPEG
googlenet,5,885,NaN,bottle,bear,0.35,6005_nse_dnn_0.35_bear_10_n02132136_3985.JPEG
googlenet,5,886,NaN,bottle,bear,0.35,6006_nse_dnn_0.35_bear_10_n02134418_5317.JPEG
googlenet,5,887,NaN,bottle,bear,0.35,6007_nse_dnn_0.35_bear_10_n02132136_3018.JPEG
googlenet,5,888,NaN,bottle,bear,0.35,6008_nse_dnn_0.35_bear_10_n02133161_5434.JPEG
googlenet,5,889,NaN,bottle,bear,0.35,6009_nse_dnn_0.35_bear_10_n02133161_2880.JPEG
googlenet,5,890,NaN,bottle,bear,0.35,6010_nse_dnn_0.35_bear_10_n02134418_460.JPEG
googlenet,5,891,NaN,bottle,boat,0.35,6011_nse_dnn_0.35_boat_10_n02951358_4397.JPEG
googlenet,5,892,NaN,bottle,boat,0.35,6012_nse_dnn_0.35_boat_10_n02951358_7923.JPEG
googlenet,5,893,NaN,bottle,boat,0.35,6013_nse_dnn_0.35_boat_10_n03344393_5746.JPEG
googlenet,5,894,NaN,bottle,boat,0.35,6014_nse_dnn_0.35_boat_10_n02951358_29779.JPEG
googlenet,5,895,NaN,bottle,boat,0.35,6015_nse_dnn_0.35_boat_10_n02951358_12713.JPEG
googlenet,5,896,NaN,bottle,boat,0.35,6016_nse_dnn_0.35_boat_10_n03662601_3100.JPEG
googlenet,5,897,NaN,bottle,boat,0.35,6017_nse_dnn_0.35_boat_10_n03344393_5779.JPEG
googlenet,5,898,NaN,bottle,boat,0.35,6018_nse_dnn_0.35_boat_10_n04612504_18637.JPEG
googlenet,5,899,NaN,bottle,boat,0.35,6019_nse_dnn_0.35_boat_10_n03344393_3185.JPEG
googlenet,5,900,NaN,bottle,boat,0.35,6020_nse_dnn_0.35_boat_10_n04273569_3893.JPEG
googlenet,5,901,NaN,bottle,cat,0.35,6021_nse_dnn_0.35_cat_10_n02123045_10263.JPEG
googlenet,5,902,NaN,bottle,cat,0.35,6022_nse_dnn_0.35_cat_10_n02123597_14357.JPEG
googlenet,5,903,NaN,dog,cat,0.35,6023_nse_dnn_0.35_cat_10_n02123159_1868.JPEG
googlenet,5,904,NaN,bottle,cat,0.35,6024_nse_dnn_0.35_cat_10_n02123159_1859.JPEG
googlenet,5,905,NaN,bottle,cat,0.35,6025_nse_dnn_0.35_cat_10_n02123597_1843.JPEG
googlenet,5,906,NaN,bottle,cat,0.35,6026_nse_dnn_0.35_cat_10_n02123045_5150.JPEG
googlenet,5,907,NaN,bottle,cat,0.35,6027_nse_dnn_0.35_cat_10_n02125311_45242.JPEG
googlenet,5,908,NaN,bottle,cat,0.35,6028_nse_dnn_0.35_cat_10_n02123597_7160.JPEG
googlenet,5,909,NaN,bottle,cat,0.35,6029_nse_dnn_0.35_cat_10_n02123394_1953.JPEG
googlenet,5,910,NaN,bottle,cat,0.35,6030_nse_dnn_0.35_cat_10_n02123597_1237.JPEG
googlenet,5,911,NaN,bottle,bottle,0.35,6031_nse_dnn_0.35_bottle_10_n03937543_4607.JPEG
googlenet,5,912,NaN,bottle,bottle,0.35,6032_nse_dnn_0.35_bottle_10_n02823428_7788.JPEG
googlenet,5,913,NaN,bottle,bottle,0.35,6033_nse_dnn_0.35_bottle_10_n04591713_107.JPEG
googlenet,5,914,NaN,bottle,bottle,0.35,6034_nse_dnn_0.35_bottle_10_n03983396_17666.JPEG
googlenet,5,915,NaN,bottle,bottle,0.35,6035_nse_dnn_0.35_bottle_10_n04557648_1375.JPEG
googlenet,5,916,NaN,bottle,bottle,0.35,6036_nse_dnn_0.35_bottle_10_n03937543_7763.JPEG
googlenet,5,917,NaN,bottle,bottle,0.35,6037_nse_dnn_0.35_bottle_10_n04579145_7134.JPEG
googlenet,5,918,NaN,bottle,bottle,0.35,6038_nse_dnn_0.35_bottle_10_n04560804_15123.JPEG
googlenet,5,919,NaN,bird,bottle,0.35,6039_nse_dnn_0.35_bottle_10_n02823428_1045.JPEG
googlenet,5,920,NaN,bottle,bottle,0.35,6040_nse_dnn_0.35_bottle_10_n03937543_73.JPEG
googlenet,5,921,NaN,bottle,truck,0.35,6041_nse_dnn_0.35_truck_10_n03417042_13151.JPEG
googlenet,5,922,NaN,bottle,truck,0.35,6042_nse_dnn_0.35_truck_10_n04467665_83611.JPEG
googlenet,5,923,NaN,bottle,truck,0.35,6043_nse_dnn_0.35_truck_10_n03417042_20489.JPEG
googlenet,5,924,NaN,bird,truck,0.35,6044_nse_dnn_0.35_truck_10_n03417042_1087.JPEG
googlenet,5,925,NaN,bottle,truck,0.35,6045_nse_dnn_0.35_truck_10_n03417042_10533.JPEG
googlenet,5,926,NaN,bottle,truck,0.35,6046_nse_dnn_0.35_truck_10_n04467665_19645.JPEG
googlenet,5,927,NaN,bottle,truck,0.35,6047_nse_dnn_0.35_truck_10_n03417042_17839.JPEG
googlenet,5,928,NaN,bottle,truck,0.35,6048_nse_dnn_0.35_truck_10_n03417042_1282.JPEG
googlenet,5,929,NaN,bottle,truck,0.35,6049_nse_dnn_0.35_truck_10_n04467665_5389.JPEG
googlenet,5,930,NaN,bottle,truck,0.35,6050_nse_dnn_0.35_truck_10_n03417042_634.JPEG
googlenet,5,931,NaN,bottle,car,0.35,6051_nse_dnn_0.35_car_10_n04285008_3393.JPEG
googlenet,5,932,NaN,bottle,car,0.35,6052_nse_dnn_0.35_car_10_n04285008_14972.JPEG
googlenet,5,933,NaN,bottle,car,0.35,6053_nse_dnn_0.35_car_10_n03100240_17555.JPEG
googlenet,5,934,NaN,bird,car,0.35,6054_nse_dnn_0.35_car_10_n03100240_6311.JPEG
googlenet,5,935,NaN,bird,car,0.35,6055_nse_dnn_0.35_car_10_n02814533_10754.JPEG
googlenet,5,936,NaN,bottle,car,0.35,6056_nse_dnn_0.35_car_10_n04285008_7166.JPEG
googlenet,5,937,NaN,bottle,car,0.35,6057_nse_dnn_0.35_car_10_n04285008_5262.JPEG
googlenet,5,938,NaN,bottle,car,0.35,6058_nse_dnn_0.35_car_10_n02814533_10701.JPEG
googlenet,5,939,NaN,bottle,car,0.35,6059_nse_dnn_0.35_car_10_n04285008_4777.JPEG
googlenet,5,940,NaN,bottle,car,0.35,6060_nse_dnn_0.35_car_10_n02814533_2496.JPEG
googlenet,5,941,NaN,bottle,bird,0.35,6061_nse_dnn_0.35_bird_10_n01582220_7686.JPEG
googlenet,5,942,NaN,bottle,bird,0.35,6062_nse_dnn_0.35_bird_10_n02002556_20965.JPEG
googlenet,5,943,NaN,bottle,bird,0.35,6063_nse_dnn_0.35_bird_10_n02017213_4434.JPEG
googlenet,5,944,NaN,bottle,bird,0.35,6064_nse_dnn_0.35_bird_10_n01514859_8758.JPEG
googlenet,5,945,NaN,bottle,bird,0.35,6065_nse_dnn_0.35_bird_10_n01537544_19206.JPEG
googlenet,5,946,NaN,bottle,bird,0.35,6066_nse_dnn_0.35_bird_10_n01817953_25358.JPEG
googlenet,5,947,NaN,clock,bird,0.35,6067_nse_dnn_0.35_bird_10_n01560419_294.JPEG
googlenet,5,948,NaN,bottle,bird,0.35,6068_nse_dnn_0.35_bird_10_n01558993_2327.JPEG
googlenet,5,949,NaN,bottle,bird,0.35,6069_nse_dnn_0.35_bird_10_n02017213_5824.JPEG
googlenet,5,950,NaN,bottle,bird,0.35,6070_nse_dnn_0.35_bird_10_n02028035_34351.JPEG
googlenet,5,951,NaN,bottle,dog,0.35,6071_nse_dnn_0.35_dog_10_n02111277_3092.JPEG
googlenet,5,952,NaN,bottle,dog,0.35,6072_nse_dnn_0.35_dog_10_n02097130_4446.JPEG
googlenet,5,953,NaN,bottle,dog,0.35,6073_nse_dnn_0.35_dog_10_n02107574_2800.JPEG
googlenet,5,954,NaN,bottle,dog,0.35,6074_nse_dnn_0.35_dog_10_n02099849_8797.JPEG
googlenet,5,955,NaN,bottle,dog,0.35,6075_nse_dnn_0.35_dog_10_n02109047_4317.JPEG
googlenet,5,956,NaN,elephant,dog,0.35,6076_nse_dnn_0.35_dog_10_n02109525_72678.JPEG
googlenet,5,957,NaN,bottle,dog,0.35,6077_nse_dnn_0.35_dog_10_n02111277_8579.JPEG
googlenet,5,958,NaN,bottle,dog,0.35,6078_nse_dnn_0.35_dog_10_n02092002_1460.JPEG
googlenet,5,959,NaN,bottle,dog,0.35,6079_nse_dnn_0.35_dog_10_n02086240_5689.JPEG
googlenet,5,960,NaN,bottle,dog,0.35,6080_nse_dnn_0.35_dog_10_n02113799_2814.JPEG
googlenet,5,961,NaN,bottle,knife,0.60,6081_nse_dnn_0.60_knife_10_n03041632_17349.JPEG
googlenet,5,962,NaN,bottle,knife,0.60,6082_nse_dnn_0.60_knife_10_n03041632_11327.JPEG
googlenet,5,963,NaN,bottle,knife,0.60,6083_nse_dnn_0.60_knife_10_n03041632_55711.JPEG
googlenet,5,964,NaN,bottle,knife,0.60,6084_nse_dnn_0.60_knife_10_n03041632_38996.JPEG
googlenet,5,965,NaN,bottle,knife,0.60,6085_nse_dnn_0.60_knife_10_n03041632_8666.JPEG
googlenet,5,966,NaN,bottle,knife,0.60,6086_nse_dnn_0.60_knife_10_n03041632_84240.JPEG
googlenet,5,967,NaN,bottle,knife,0.60,6087_nse_dnn_0.60_knife_10_n03041632_2153.JPEG
googlenet,5,968,NaN,bottle,knife,0.60,6088_nse_dnn_0.60_knife_10_n03041632_13612.JPEG
googlenet,5,969,NaN,bottle,knife,0.60,6089_nse_dnn_0.60_knife_10_n03041632_23667.JPEG
googlenet,5,970,NaN,bottle,knife,0.60,6090_nse_dnn_0.60_knife_10_n03041632_992.JPEG
googlenet,5,971,NaN,bottle,keyboard,0.60,6091_nse_dnn_0.60_keyboard_10_n04505470_930.JPEG
googlenet,5,972,NaN,bottle,keyboard,0.60,6092_nse_dnn_0.60_keyboard_10_n03085013_15522.JPEG
googlenet,5,973,NaN,bottle,keyboard,0.60,6093_nse_dnn_0.60_keyboard_10_n04505470_5099.JPEG
googlenet,5,974,NaN,bottle,keyboard,0.60,6094_nse_dnn_0.60_keyboard_10_n04505470_8822.JPEG
googlenet,5,975,NaN,bottle,keyboard,0.60,6095_nse_dnn_0.60_keyboard_10_n04505470_1540.JPEG
googlenet,5,976,NaN,bottle,keyboard,0.60,6096_nse_dnn_0.60_keyboard_10_n04505470_4569.JPEG
googlenet,5,977,NaN,bottle,keyboard,0.60,6097_nse_dnn_0.60_keyboard_10_n04505470_650.JPEG
googlenet,5,978,NaN,bottle,keyboard,0.60,6098_nse_dnn_0.60_keyboard_10_n04505470_2557.JPEG
googlenet,5,979,NaN,bottle,keyboard,0.60,6099_nse_dnn_0.60_keyboard_10_n03085013_23793.JPEG
googlenet,5,980,NaN,bottle,keyboard,0.60,6100_nse_dnn_0.60_keyboard_10_n04505470_4973.JPEG
googlenet,5,981,NaN,bottle,elephant,0.60,6101_nse_dnn_0.60_elephant_10_n02504458_5144.JPEG
googlenet,5,982,NaN,bottle,elephant,0.60,6102_nse_dnn_0.60_elephant_10_n02504458_6721.JPEG
googlenet,5,983,NaN,bottle,elephant,0.60,6103_nse_dnn_0.60_elephant_10_n02504013_6903.JPEG
googlenet,5,984,NaN,bottle,elephant,0.60,6104_nse_dnn_0.60_elephant_10_n02504013_10521.JPEG
googlenet,5,985,NaN,bottle,elephant,0.60,6105_nse_dnn_0.60_elephant_10_n02504458_1644.JPEG
googlenet,5,986,NaN,bottle,elephant,0.60,6106_nse_dnn_0.60_elephant_10_n02504013_6880.JPEG
googlenet,5,987,NaN,bottle,elephant,0.60,6107_nse_dnn_0.60_elephant_10_n02504458_3535.JPEG
googlenet,5,988,NaN,bottle,elephant,0.60,6108_nse_dnn_0.60_elephant_10_n02504458_7841.JPEG
googlenet,5,989,NaN,bottle,elephant,0.60,6109_nse_dnn_0.60_elephant_10_n02504458_6608.JPEG
googlenet,5,990,NaN,bottle,elephant,0.60,6110_nse_dnn_0.60_elephant_10_n02504013_3172.JPEG
googlenet,5,991,NaN,bottle,bicycle,0.60,6111_nse_dnn_0.60_bicycle_10_n02835271_8798.JPEG
googlenet,5,992,NaN,bottle,bicycle,0.60,6112_nse_dnn_0.60_bicycle_10_n02835271_5908.JPEG
googlenet,5,993,NaN,bottle,bicycle,0.60,6113_nse_dnn_0.60_bicycle_10_n03792782_5086.JPEG
googlenet,5,994,NaN,bottle,bicycle,0.60,6114_nse_dnn_0.60_bicycle_10_n02835271_6167.JPEG
googlenet,5,995,NaN,bottle,bicycle,0.60,6115_nse_dnn_0.60_bicycle_10_n03792782_17337.JPEG
googlenet,5,996,NaN,bottle,bicycle,0.60,6116_nse_dnn_0.60_bicycle_10_n02835271_1851.JPEG
googlenet,5,997,NaN,bottle,bicycle,0.60,6117_nse_dnn_0.60_bicycle_10_n02835271_9507.JPEG
googlenet,5,998,NaN,bottle,bicycle,0.60,6118_nse_dnn_0.60_bicycle_10_n02835271_7753.JPEG
googlenet,5,999,NaN,bottle,bicycle,0.60,6119_nse_dnn_0.60_bicycle_10_n03792782_19267.JPEG
googlenet,5,1000,NaN,bottle,bicycle,0.60,6120_nse_dnn_0.60_bicycle_10_n03792782_11272.JPEG
googlenet,5,1001,NaN,bottle,airplane,0.60,6121_nse_dnn_0.60_airplane_10_n02690373_5487.JPEG
googlenet,5,1002,NaN,bottle,airplane,0.60,6122_nse_dnn_0.60_airplane_10_n02690373_2379.JPEG
googlenet,5,1003,NaN,bottle,airplane,0.60,6123_nse_dnn_0.60_airplane_10_n02690373_3589.JPEG
googlenet,5,1004,NaN,bottle,airplane,0.60,6124_nse_dnn_0.60_airplane_10_n02690373_18555.JPEG
googlenet,5,1005,NaN,bottle,airplane,0.60,6125_nse_dnn_0.60_airplane_10_n02690373_17694.JPEG
googlenet,5,1006,NaN,bottle,airplane,0.60,6126_nse_dnn_0.60_airplane_10_n02690373_1823.JPEG
googlenet,5,1007,NaN,bottle,airplane,0.60,6127_nse_dnn_0.60_airplane_10_n02690373_845.JPEG
googlenet,5,1008,NaN,bottle,airplane,0.60,6128_nse_dnn_0.60_airplane_10_n02690373_13021.JPEG
googlenet,5,1009,NaN,bottle,airplane,0.60,6129_nse_dnn_0.60_airplane_10_n02690373_1171.JPEG
googlenet,5,1010,NaN,bottle,airplane,0.60,6130_nse_dnn_0.60_airplane_10_n02690373_9059.JPEG
googlenet,5,1011,NaN,bottle,clock,0.60,6131_nse_dnn_0.60_clock_10_n04548280_22842.JPEG
googlenet,5,1012,NaN,bottle,clock,0.60,6132_nse_dnn_0.60_clock_10_n02708093_151.JPEG
googlenet,5,1013,NaN,bottle,clock,0.60,6133_nse_dnn_0.60_clock_10_n03196217_3669.JPEG
googlenet,5,1014,NaN,bottle,clock,0.60,6134_nse_dnn_0.60_clock_10_n02708093_1430.JPEG
googlenet,5,1015,NaN,bottle,clock,0.60,6135_nse_dnn_0.60_clock_10_n04548280_6919.JPEG
googlenet,5,1016,NaN,bottle,clock,0.60,6136_nse_dnn_0.60_clock_10_n02708093_556.JPEG
googlenet,5,1017,NaN,bottle,clock,0.60,6137_nse_dnn_0.60_clock_10_n02708093_1675.JPEG
googlenet,5,1018,NaN,bottle,clock,0.60,6138_nse_dnn_0.60_clock_10_n03196217_5206.JPEG
googlenet,5,1019,NaN,bottle,clock,0.60,6139_nse_dnn_0.60_clock_10_n02708093_2512.JPEG
googlenet,5,1020,NaN,bottle,clock,0.60,6140_nse_dnn_0.60_clock_10_n03196217_12291.JPEG
googlenet,5,1021,NaN,bottle,oven,0.60,6141_nse_dnn_0.60_oven_10_n04111531_550.JPEG
googlenet,5,1022,NaN,bottle,oven,0.60,6142_nse_dnn_0.60_oven_10_n04111531_14766.JPEG
googlenet,5,1023,NaN,bottle,oven,0.60,6143_nse_dnn_0.60_oven_10_n04111531_4444.JPEG
googlenet,5,1024,NaN,bottle,oven,0.60,6144_nse_dnn_0.60_oven_10_n04111531_9838.JPEG
googlenet,5,1025,NaN,bottle,oven,0.60,6145_nse_dnn_0.60_oven_10_n04111531_3353.JPEG
googlenet,5,1026,NaN,bottle,oven,0.60,6146_nse_dnn_0.60_oven_10_n04111531_19157.JPEG
googlenet,5,1027,NaN,bottle,oven,0.60,6147_nse_dnn_0.60_oven_10_n04111531_4998.JPEG
googlenet,5,1028,NaN,bottle,oven,0.60,6148_nse_dnn_0.60_oven_10_n04111531_5463.JPEG
googlenet,5,1029,NaN,bottle,oven,0.60,6149_nse_dnn_0.60_oven_10_n04111531_452.JPEG
googlenet,5,1030,NaN,bottle,oven,0.60,6150_nse_dnn_0.60_oven_10_n04111531_15467.JPEG
googlenet,5,1031,NaN,bottle,chair,0.60,6151_nse_dnn_0.60_chair_10_n04429376_24073.JPEG
googlenet,5,1032,NaN,bottle,chair,0.60,6152_nse_dnn_0.60_chair_10_n02791124_2085.JPEG
googlenet,5,1033,NaN,bottle,chair,0.60,6153_nse_dnn_0.60_chair_10_n04099969_4662.JPEG
googlenet,5,1034,NaN,bottle,chair,0.60,6154_nse_dnn_0.60_chair_10_n02791124_4930.JPEG
googlenet,5,1035,NaN,bottle,chair,0.60,6155_nse_dnn_0.60_chair_10_n02791124_257.JPEG
googlenet,5,1036,NaN,bottle,chair,0.60,6156_nse_dnn_0.60_chair_10_n04429376_48453.JPEG
googlenet,5,1037,NaN,bottle,chair,0.60,6157_nse_dnn_0.60_chair_10_n04099969_7653.JPEG
googlenet,5,1038,NaN,bottle,chair,0.60,6158_nse_dnn_0.60_chair_10_n02791124_5268.JPEG
googlenet,5,1039,NaN,bottle,chair,0.60,6159_nse_dnn_0.60_chair_10_n04099969_2267.JPEG
googlenet,5,1040,NaN,bottle,chair,0.60,6160_nse_dnn_0.60_chair_10_n04429376_22333.JPEG
googlenet,5,1041,NaN,bottle,bear,0.60,6161_nse_dnn_0.60_bear_10_n02132136_23971.JPEG
googlenet,5,1042,NaN,bottle,bear,0.60,6162_nse_dnn_0.60_bear_10_n02134418_21460.JPEG
googlenet,5,1043,NaN,bottle,bear,0.60,6163_nse_dnn_0.60_bear_10_n02134084_2104.JPEG
googlenet,5,1044,NaN,bottle,bear,0.60,6164_nse_dnn_0.60_bear_10_n02134084_12605.JPEG
googlenet,5,1045,NaN,bottle,bear,0.60,6165_nse_dnn_0.60_bear_10_n02133161_6651.JPEG
googlenet,5,1046,NaN,bottle,bear,0.60,6166_nse_dnn_0.60_bear_10_n02134418_8928.JPEG
googlenet,5,1047,NaN,bottle,bear,0.60,6167_nse_dnn_0.60_bear_10_n02133161_1922.JPEG
googlenet,5,1048,NaN,bottle,bear,0.60,6168_nse_dnn_0.60_bear_10_n02133161_588.JPEG
googlenet,5,1049,NaN,bottle,bear,0.60,6169_nse_dnn_0.60_bear_10_n02133161_2741.JPEG
googlenet,5,1050,NaN,bottle,bear,0.60,6170_nse_dnn_0.60_bear_10_n02134084_10869.JPEG
googlenet,5,1051,NaN,bottle,boat,0.60,6171_nse_dnn_0.60_boat_10_n03662601_6729.JPEG
googlenet,5,1052,NaN,bottle,boat,0.60,6172_nse_dnn_0.60_boat_10_n03662601_27532.JPEG
googlenet,5,1053,NaN,bottle,boat,0.60,6173_nse_dnn_0.60_boat_10_n04612504_2780.JPEG
googlenet,5,1054,NaN,bottle,boat,0.60,6174_nse_dnn_0.60_boat_10_n02951358_12125.JPEG
googlenet,5,1055,NaN,bottle,boat,0.60,6175_nse_dnn_0.60_boat_10_n04273569_23140.JPEG
googlenet,5,1056,NaN,bottle,boat,0.60,6176_nse_dnn_0.60_boat_10_n04612504_16138.JPEG
googlenet,5,1057,NaN,bottle,boat,0.60,6177_nse_dnn_0.60_boat_10_n03662601_18135.JPEG
googlenet,5,1058,NaN,bottle,boat,0.60,6178_nse_dnn_0.60_boat_10_n03344393_3227.JPEG
googlenet,5,1059,NaN,bottle,boat,0.60,6179_nse_dnn_0.60_boat_10_n03662601_4451.JPEG
googlenet,5,1060,NaN,bottle,boat,0.60,6180_nse_dnn_0.60_boat_10_n04612504_7137.JPEG
googlenet,5,1061,NaN,bottle,cat,0.60,6181_nse_dnn_0.60_cat_10_n02123045_2688.JPEG
googlenet,5,1062,NaN,bottle,cat,0.60,6182_nse_dnn_0.60_cat_10_n02123597_13734.JPEG
googlenet,5,1063,NaN,bottle,cat,0.60,6183_nse_dnn_0.60_cat_10_n02123394_4596.JPEG
googlenet,5,1064,NaN,bottle,cat,0.60,6184_nse_dnn_0.60_cat_10_n02123045_3435.JPEG
googlenet,5,1065,NaN,bottle,cat,0.60,6185_nse_dnn_0.60_cat_10_n02123597_5186.JPEG
googlenet,5,1066,NaN,bottle,cat,0.60,6186_nse_dnn_0.60_cat_10_n02123045_3887.JPEG
googlenet,5,1067,NaN,bottle,cat,0.60,6187_nse_dnn_0.60_cat_10_n02124075_15370.JPEG
googlenet,5,1068,NaN,bottle,cat,0.60,6188_nse_dnn_0.60_cat_10_n02123159_1120.JPEG
googlenet,5,1069,NaN,bottle,cat,0.60,6189_nse_dnn_0.60_cat_10_n02125311_8689.JPEG
googlenet,5,1070,NaN,bottle,cat,0.60,6190_nse_dnn_0.60_cat_10_n02123394_8946.JPEG
googlenet,5,1071,NaN,bottle,bottle,0.60,6191_nse_dnn_0.60_bottle_10_n04557648_9222.JPEG
googlenet,5,1072,NaN,bottle,bottle,0.60,6192_nse_dnn_0.60_bottle_10_n03937543_1995.JPEG
googlenet,5,1073,NaN,bottle,bottle,0.60,6193_nse_dnn_0.60_bottle_10_n03983396_2454.JPEG
googlenet,5,1074,NaN,bottle,bottle,0.60,6194_nse_dnn_0.60_bottle_10_n04557648_2543.JPEG
googlenet,5,1075,NaN,bottle,bottle,0.60,6195_nse_dnn_0.60_bottle_10_n03983396_8730.JPEG
googlenet,5,1076,NaN,bottle,bottle,0.60,6196_nse_dnn_0.60_bottle_10_n04591713_1616.JPEG
googlenet,5,1077,NaN,bottle,bottle,0.60,6197_nse_dnn_0.60_bottle_10_n04591713_981.JPEG
googlenet,5,1078,NaN,bottle,bottle,0.60,6198_nse_dnn_0.60_bottle_10_n03937543_10429.JPEG
googlenet,5,1079,NaN,bottle,bottle,0.60,6199_nse_dnn_0.60_bottle_10_n02823428_1697.JPEG
googlenet,5,1080,NaN,bottle,bottle,0.60,6200_nse_dnn_0.60_bottle_10_n04560804_22736.JPEG
googlenet,5,1081,NaN,bottle,truck,0.60,6201_nse_dnn_0.60_truck_10_n04467665_3710.JPEG
googlenet,5,1082,NaN,bottle,truck,0.60,6202_nse_dnn_0.60_truck_10_n04467665_21379.JPEG
googlenet,5,1083,NaN,bottle,truck,0.60,6203_nse_dnn_0.60_truck_10_n04467665_11299.JPEG
googlenet,5,1084,NaN,bottle,truck,0.60,6204_nse_dnn_0.60_truck_10_n03417042_6517.JPEG
googlenet,5,1085,NaN,bottle,truck,0.60,6205_nse_dnn_0.60_truck_10_n04467665_32776.JPEG
googlenet,5,1086,NaN,bottle,truck,0.60,6206_nse_dnn_0.60_truck_10_n04467665_46727.JPEG
googlenet,5,1087,NaN,bottle,truck,0.60,6207_nse_dnn_0.60_truck_10_n03417042_20133.JPEG
googlenet,5,1088,NaN,bottle,truck,0.60,6208_nse_dnn_0.60_truck_10_n03417042_25753.JPEG
googlenet,5,1089,NaN,bottle,truck,0.60,6209_nse_dnn_0.60_truck_10_n03796401_2368.JPEG
googlenet,5,1090,NaN,bottle,truck,0.60,6210_nse_dnn_0.60_truck_10_n04467665_13898.JPEG
googlenet,5,1091,NaN,bottle,car,0.60,6211_nse_dnn_0.60_car_10_n04285008_3677.JPEG
googlenet,5,1092,NaN,bottle,car,0.60,6212_nse_dnn_0.60_car_10_n03100240_7715.JPEG
googlenet,5,1093,NaN,bottle,car,0.60,6213_nse_dnn_0.60_car_10_n02814533_45150.JPEG
googlenet,5,1094,NaN,bottle,car,0.60,6214_nse_dnn_0.60_car_10_n03100240_7206.JPEG
googlenet,5,1095,NaN,bottle,car,0.60,6215_nse_dnn_0.60_car_10_n03100240_1073.JPEG
googlenet,5,1096,NaN,bottle,car,0.60,6216_nse_dnn_0.60_car_10_n04285008_4704.JPEG
googlenet,5,1097,NaN,bottle,car,0.60,6217_nse_dnn_0.60_car_10_n04285008_13247.JPEG
googlenet,5,1098,NaN,bottle,car,0.60,6218_nse_dnn_0.60_car_10_n04285008_9464.JPEG
googlenet,5,1099,NaN,bottle,car,0.60,6219_nse_dnn_0.60_car_10_n02814533_6178.JPEG
googlenet,5,1100,NaN,bottle,car,0.60,6220_nse_dnn_0.60_car_10_n02814533_67918.JPEG
googlenet,5,1101,NaN,bottle,bird,0.60,6221_nse_dnn_0.60_bird_10_n01829413_772.JPEG
googlenet,5,1102,NaN,bottle,bird,0.60,6222_nse_dnn_0.60_bird_10_n01537544_9073.JPEG
googlenet,5,1103,NaN,bottle,bird,0.60,6223_nse_dnn_0.60_bird_10_n01582220_3049.JPEG
googlenet,5,1104,NaN,bottle,bird,0.60,6224_nse_dnn_0.60_bird_10_n01560419_2879.JPEG
googlenet,5,1105,NaN,bottle,bird,0.60,6225_nse_dnn_0.60_bird_10_n02009912_7038.JPEG
googlenet,5,1106,NaN,bottle,bird,0.60,6226_nse_dnn_0.60_bird_10_n02018207_3889.JPEG
googlenet,5,1107,NaN,bottle,bird,0.60,6227_nse_dnn_0.60_bird_10_n01819313_6429.JPEG
googlenet,5,1108,NaN,bottle,bird,0.60,6228_nse_dnn_0.60_bird_10_n02028035_12989.JPEG
googlenet,5,1109,NaN,bottle,bird,0.60,6229_nse_dnn_0.60_bird_10_n02018795_4125.JPEG
googlenet,5,1110,NaN,bottle,bird,0.60,6230_nse_dnn_0.60_bird_10_n02006656_6701.JPEG
googlenet,5,1111,NaN,bottle,dog,0.60,6231_nse_dnn_0.60_dog_10_n02085782_8895.JPEG
googlenet,5,1112,NaN,bottle,dog,0.60,6232_nse_dnn_0.60_dog_10_n02097047_2758.JPEG
googlenet,5,1113,NaN,bottle,dog,0.60,6233_nse_dnn_0.60_dog_10_n02104029_515.JPEG
googlenet,5,1114,NaN,bottle,dog,0.60,6234_nse_dnn_0.60_dog_10_n02093754_3442.JPEG
googlenet,5,1115,NaN,bottle,dog,0.60,6235_nse_dnn_0.60_dog_10_n02113624_6238.JPEG
googlenet,5,1116,NaN,bottle,dog,0.60,6236_nse_dnn_0.60_dog_10_n02091467_9487.JPEG
googlenet,5,1117,NaN,bottle,dog,0.60,6237_nse_dnn_0.60_dog_10_n02105162_5513.JPEG
googlenet,5,1118,NaN,bottle,dog,0.60,6238_nse_dnn_0.60_dog_10_n02088238_1427.JPEG
googlenet,5,1119,NaN,bottle,dog,0.60,6239_nse_dnn_0.60_dog_10_n02096294_11425.JPEG
googlenet,5,1120,NaN,bottle,dog,0.60,6240_nse_dnn_0.60_dog_10_n02093428_18188.JPEG
googlenet,5,1121,NaN,bottle,knife,0.90,6241_nse_dnn_0.90_knife_10_n03041632_50332.JPEG
googlenet,5,1122,NaN,bottle,knife,0.90,6242_nse_dnn_0.90_knife_10_n03041632_26236.JPEG
googlenet,5,1123,NaN,bottle,knife,0.90,6243_nse_dnn_0.90_knife_10_n03041632_33255.JPEG
googlenet,5,1124,NaN,bottle,knife,0.90,6244_nse_dnn_0.90_knife_10_n03041632_84012.JPEG
googlenet,5,1125,NaN,bottle,knife,0.90,6245_nse_dnn_0.90_knife_10_n03041632_30565.JPEG
googlenet,5,1126,NaN,bottle,knife,0.90,6246_nse_dnn_0.90_knife_10_n03041632_10802.JPEG
googlenet,5,1127,NaN,bottle,knife,0.90,6247_nse_dnn_0.90_knife_10_n03041632_16104.JPEG
googlenet,5,1128,NaN,bottle,knife,0.90,6248_nse_dnn_0.90_knife_10_n03041632_24277.JPEG
googlenet,5,1129,NaN,bottle,knife,0.90,6249_nse_dnn_0.90_knife_10_n03041632_32048.JPEG
googlenet,5,1130,NaN,bottle,knife,0.90,6250_nse_dnn_0.90_knife_10_n03041632_36280.JPEG
googlenet,5,1131,NaN,bottle,keyboard,0.90,6251_nse_dnn_0.90_keyboard_10_n03085013_24449.JPEG
googlenet,5,1132,NaN,bottle,keyboard,0.90,6252_nse_dnn_0.90_keyboard_10_n04505470_10705.JPEG
googlenet,5,1133,NaN,bottle,keyboard,0.90,6253_nse_dnn_0.90_keyboard_10_n04505470_1929.JPEG
googlenet,5,1134,NaN,bottle,keyboard,0.90,6254_nse_dnn_0.90_keyboard_10_n03085013_1808.JPEG
googlenet,5,1135,NaN,bottle,keyboard,0.90,6255_nse_dnn_0.90_keyboard_10_n03085013_20553.JPEG
googlenet,5,1136,NaN,bottle,keyboard,0.90,6256_nse_dnn_0.90_keyboard_10_n03085013_21488.JPEG
googlenet,5,1137,NaN,bottle,keyboard,0.90,6257_nse_dnn_0.90_keyboard_10_n04505470_1794.JPEG
googlenet,5,1138,NaN,bottle,keyboard,0.90,6258_nse_dnn_0.90_keyboard_10_n04505470_4458.JPEG
googlenet,5,1139,NaN,bottle,keyboard,0.90,6259_nse_dnn_0.90_keyboard_10_n04505470_4971.JPEG
googlenet,5,1140,NaN,bottle,keyboard,0.90,6260_nse_dnn_0.90_keyboard_10_n03085013_23312.JPEG
googlenet,5,1141,NaN,bottle,elephant,0.90,6261_nse_dnn_0.90_elephant_10_n02504458_11186.JPEG
googlenet,5,1142,NaN,bottle,elephant,0.90,6262_nse_dnn_0.90_elephant_10_n02504458_13179.JPEG
googlenet,5,1143,NaN,bottle,elephant,0.90,6263_nse_dnn_0.90_elephant_10_n02504013_1251.JPEG
googlenet,5,1144,NaN,bottle,elephant,0.90,6264_nse_dnn_0.90_elephant_10_n02504458_10444.JPEG
googlenet,5,1145,NaN,bottle,elephant,0.90,6265_nse_dnn_0.90_elephant_10_n02504013_8956.JPEG
googlenet,5,1146,NaN,bottle,elephant,0.90,6266_nse_dnn_0.90_elephant_10_n02504013_5530.JPEG
googlenet,5,1147,NaN,bottle,elephant,0.90,6267_nse_dnn_0.90_elephant_10_n02504458_1604.JPEG
googlenet,5,1148,NaN,bottle,elephant,0.90,6268_nse_dnn_0.90_elephant_10_n02504013_1201.JPEG
googlenet,5,1149,NaN,bottle,elephant,0.90,6269_nse_dnn_0.90_elephant_10_n02504013_1081.JPEG
googlenet,5,1150,NaN,bottle,elephant,0.90,6270_nse_dnn_0.90_elephant_10_n02504013_4183.JPEG
googlenet,5,1151,NaN,bottle,bicycle,0.90,6271_nse_dnn_0.90_bicycle_10_n03792782_7108.JPEG
googlenet,5,1152,NaN,bottle,bicycle,0.90,6272_nse_dnn_0.90_bicycle_10_n02835271_3642.JPEG
googlenet,5,1153,NaN,bottle,bicycle,0.90,6273_nse_dnn_0.90_bicycle_10_n02835271_18038.JPEG
googlenet,5,1154,NaN,bottle,bicycle,0.90,6274_nse_dnn_0.90_bicycle_10_n03792782_43204.JPEG
googlenet,5,1155,NaN,bottle,bicycle,0.90,6275_nse_dnn_0.90_bicycle_10_n03792782_49848.JPEG
googlenet,5,1156,NaN,bottle,bicycle,0.90,6276_nse_dnn_0.90_bicycle_10_n02835271_3767.JPEG
googlenet,5,1157,NaN,bottle,bicycle,0.90,6277_nse_dnn_0.90_bicycle_10_n03792782_1982.JPEG
googlenet,5,1158,NaN,bottle,bicycle,0.90,6278_nse_dnn_0.90_bicycle_10_n03792782_7475.JPEG
googlenet,5,1159,NaN,bottle,bicycle,0.90,6279_nse_dnn_0.90_bicycle_10_n03792782_42927.JPEG
googlenet,5,1160,NaN,bottle,bicycle,0.90,6280_nse_dnn_0.90_bicycle_10_n02835271_13234.JPEG
googlenet,5,1161,NaN,bottle,airplane,0.90,6281_nse_dnn_0.90_airplane_10_n02690373_4565.JPEG
googlenet,5,1162,NaN,bottle,airplane,0.90,6282_nse_dnn_0.90_airplane_10_n02690373_7370.JPEG
googlenet,5,1163,NaN,bottle,airplane,0.90,6283_nse_dnn_0.90_airplane_10_n02690373_6576.JPEG
