subj,session,trial,rt,object_response,category,condition,imagename
vgg,1,1,NaN,knife,knife,0.00,0001_nse_dnn_0.00_knife_10_n03041632_8618.JPEG
vgg,1,2,NaN,knife,knife,0.00,0002_nse_dnn_0.00_knife_10_n03041632_51256.JPEG
vgg,1,3,NaN,oven,knife,0.00,0003_nse_dnn_0.00_knife_10_n03041632_27898.JPEG
vgg,1,4,NaN,knife,knife,0.00,0004_nse_dnn_0.00_knife_10_n03041632_32177.JPEG
vgg,1,5,NaN,knife,knife,0.00,0005_nse_dnn_0.00_knife_10_n03041632_23548.JPEG
vgg,1,6,NaN,chair,knife,0.00,0006_nse_dnn_0.00_knife_10_n03041632_41381.JPEG
vgg,1,7,NaN,knife,knife,0.00,0007_nse_dnn_0.00_knife_10_n03041632_24264.JPEG
vgg,1,8,NaN,chair,knife,0.00,0008_nse_dnn_0.00_knife_10_n03041632_45090.JPEG
vgg,1,9,NaN,truck,knife,0.00,0009_nse_dnn_0.00_knife_10_n03041632_87339.JPEG
vgg,1,10,NaN,knife,knife,0.00,0010_nse_dnn_0.00_knife_10_n03041632_96361.JPEG
vgg,1,11,NaN,keyboard,keyboard,0.00,0011_nse_dnn_0.00_keyboard_10_n03085013_29396.JPEG
vgg,1,12,NaN,bottle,keyboard,0.00,0012_nse_dnn_0.00_keyboard_10_n04505470_1719.JPEG
vgg,1,13,NaN,keyboard,keyboard,0.00,0013_nse_dnn_0.00_keyboard_10_n04505470_10668.JPEG
vgg,1,14,NaN,keyboard,keyboard,0.00,0014_nse_dnn_0.00_keyboard_10_n03085013_20267.JPEG
vgg,1,15,NaN,keyboard,keyboard,0.00,0015_nse_dnn_0.00_keyboard_10_n03085013_23706.JPEG
vgg,1,16,NaN,keyboard,keyboard,0.00,0016_nse_dnn_0.00_keyboard_10_n03085013_7440.JPEG
vgg,1,17,NaN,keyboard,keyboard,0.00,0017_nse_dnn_0.00_keyboard_10_n03085013_7511.JPEG
vgg,1,18,NaN,keyboard,keyboard,0.00,0018_nse_dnn_0.00_keyboard_10_n04505470_5161.JPEG
vgg,1,19,NaN,keyboard,keyboard,0.00,0019_nse_dnn_0.00_keyboard_10_n04505470_1393.JPEG
vgg,1,20,NaN,keyboard,keyboard,0.00,0020_nse_dnn_0.00_keyboard_10_n04505470_4535.JPEG
vgg,1,21,NaN,elephant,elephant,0.00,0021_nse_dnn_0.00_elephant_10_n02504013_579.JPEG
vgg,1,22,NaN,elephant,elephant,0.00,0022_nse_dnn_0.00_elephant_10_n02504013_23660.JPEG
vgg,1,23,NaN,elephant,elephant,0.00,0023_nse_dnn_0.00_elephant_10_n02504458_9876.JPEG
vgg,1,24,NaN,elephant,elephant,0.00,0024_nse_dnn_0.00_elephant_10_n02504013_2672.JPEG
vgg,1,25,NaN,elephant,elephant,0.00,0025_nse_dnn_0.00_elephant_10_n02504458_7331.JPEG
vgg,1,26,NaN,elephant,elephant,0.00,0026_nse_dnn_0.00_elephant_10_n02504013_2498.JPEG
vgg,1,27,NaN,elephant,elephant,0.00,0027_nse_dnn_0.00_elephant_10_n02504013_993.JPEG
vgg,1,28,NaN,elephant,elephant,0.00,0028_nse_dnn_0.00_elephant_10_n02504013_6933.JPEG
vgg,1,29,NaN,elephant,elephant,0.00,0029_nse_dnn_0.00_elephant_10_n02504013_7391.JPEG
vgg,1,30,NaN,truck,elephant,0.00,0030_nse_dnn_0.00_elephant_10_n02504458_7973.JPEG
vgg,1,31,NaN,bicycle,bicycle,0.00,0031_nse_dnn_0.00_bicycle_10_n03792782_16844.JPEG
vgg,1,32,NaN,bicycle,bicycle,0.00,0032_nse_dnn_0.00_bicycle_10_n03792782_16383.JPEG
vgg,1,33,NaN,bicycle,bicycle,0.00,0033_nse_dnn_0.00_bicycle_10_n03792782_5959.JPEG
vgg,1,34,NaN,bicycle,bicycle,0.00,0034_nse_dnn_0.00_bicycle_10_n03792782_68259.JPEG
vgg,1,35,NaN,bicycle,bicycle,0.00,0035_nse_dnn_0.00_bicycle_10_n03792782_3705.JPEG
vgg,1,36,NaN,bicycle,bicycle,0.00,0036_nse_dnn_0.00_bicycle_10_n02835271_17950.JPEG
vgg,1,37,NaN,bicycle,bicycle,0.00,0037_nse_dnn_0.00_bicycle_10_n02835271_10832.JPEG
vgg,1,38,NaN,bicycle,bicycle,0.00,0038_nse_dnn_0.00_bicycle_10_n03792782_104.JPEG
vgg,1,39,NaN,bicycle,bicycle,0.00,0039_nse_dnn_0.00_bicycle_10_n02835271_17649.JPEG
vgg,1,40,NaN,bicycle,bicycle,0.00,0040_nse_dnn_0.00_bicycle_10_n03792782_14216.JPEG
vgg,1,41,NaN,airplane,airplane,0.00,0041_nse_dnn_0.00_airplane_10_n02690373_9529.JPEG
vgg,1,42,NaN,airplane,airplane,0.00,0042_nse_dnn_0.00_airplane_10_n02690373_9622.JPEG
vgg,1,43,NaN,airplane,airplane,0.00,0043_nse_dnn_0.00_airplane_10_n02690373_10354.JPEG
vgg,1,44,NaN,airplane,airplane,0.00,0044_nse_dnn_0.00_airplane_10_n02690373_389.JPEG
vgg,1,45,NaN,airplane,airplane,0.00,0045_nse_dnn_0.00_airplane_10_n02690373_1933.JPEG
vgg,1,46,NaN,airplane,airplane,0.00,0046_nse_dnn_0.00_airplane_10_n02690373_9759.JPEG
vgg,1,47,NaN,airplane,airplane,0.00,0047_nse_dnn_0.00_airplane_10_n02690373_17764.JPEG
vgg,1,48,NaN,airplane,airplane,0.00,0048_nse_dnn_0.00_airplane_10_n02690373_9828.JPEG
vgg,1,49,NaN,airplane,airplane,0.00,0049_nse_dnn_0.00_airplane_10_n02690373_8704.JPEG
vgg,1,50,NaN,airplane,airplane,0.00,0050_nse_dnn_0.00_airplane_10_n02690373_4217.JPEG
vgg,1,51,NaN,clock,clock,0.00,0051_nse_dnn_0.00_clock_10_n03196217_11054.JPEG
vgg,1,52,NaN,chair,clock,0.00,0052_nse_dnn_0.00_clock_10_n02708093_181.JPEG
vgg,1,53,NaN,clock,clock,0.00,0053_nse_dnn_0.00_clock_10_n02708093_459.JPEG
vgg,1,54,NaN,clock,clock,0.00,0054_nse_dnn_0.00_clock_10_n03196217_12131.JPEG
vgg,1,55,NaN,clock,clock,0.00,0055_nse_dnn_0.00_clock_10_n04548280_8925.JPEG
vgg,1,56,NaN,clock,clock,0.00,0056_nse_dnn_0.00_clock_10_n04548280_963.JPEG
vgg,1,57,NaN,clock,clock,0.00,0057_nse_dnn_0.00_clock_10_n02708093_3459.JPEG
vgg,1,58,NaN,clock,clock,0.00,0058_nse_dnn_0.00_clock_10_n04548280_3093.JPEG
vgg,1,59,NaN,clock,clock,0.00,0059_nse_dnn_0.00_clock_10_n04548280_700.JPEG
vgg,1,60,NaN,clock,clock,0.00,0060_nse_dnn_0.00_clock_10_n02708093_1124.JPEG
vgg,1,61,NaN,oven,oven,0.00,0061_nse_dnn_0.00_oven_10_n04111531_4785.JPEG
vgg,1,62,NaN,oven,oven,0.00,0062_nse_dnn_0.00_oven_10_n04111531_11157.JPEG
vgg,1,63,NaN,oven,oven,0.00,0063_nse_dnn_0.00_oven_10_n04111531_16144.JPEG
vgg,1,64,NaN,bottle,oven,0.00,0064_nse_dnn_0.00_oven_10_n04111531_6923.JPEG
vgg,1,65,NaN,boat,oven,0.00,0065_nse_dnn_0.00_oven_10_n04111531_7345.JPEG
vgg,1,66,NaN,bottle,oven,0.00,0066_nse_dnn_0.00_oven_10_n04111531_2086.JPEG
vgg,1,67,NaN,oven,oven,0.00,0067_nse_dnn_0.00_oven_10_n04111531_20028.JPEG
vgg,1,68,NaN,oven,oven,0.00,0068_nse_dnn_0.00_oven_10_n04111531_2630.JPEG
vgg,1,69,NaN,oven,oven,0.00,0069_nse_dnn_0.00_oven_10_n04111531_5328.JPEG
vgg,1,70,NaN,oven,oven,0.00,0070_nse_dnn_0.00_oven_10_n04111531_11794.JPEG
vgg,1,71,NaN,chair,chair,0.00,0071_nse_dnn_0.00_chair_10_n03376595_1601.JPEG
vgg,1,72,NaN,chair,chair,0.00,0072_nse_dnn_0.00_chair_10_n02791124_13469.JPEG
vgg,1,73,NaN,chair,chair,0.00,0073_nse_dnn_0.00_chair_10_n04429376_18227.JPEG
vgg,1,74,NaN,chair,chair,0.00,0074_nse_dnn_0.00_chair_10_n02791124_5405.JPEG
vgg,1,75,NaN,dog,chair,0.00,0075_nse_dnn_0.00_chair_10_n04099969_4129.JPEG
vgg,1,76,NaN,chair,chair,0.00,0076_nse_dnn_0.00_chair_10_n04099969_1805.JPEG
vgg,1,77,NaN,chair,chair,0.00,0077_nse_dnn_0.00_chair_10_n03376595_5995.JPEG
vgg,1,78,NaN,chair,chair,0.00,0078_nse_dnn_0.00_chair_10_n04099969_5237.JPEG
vgg,1,79,NaN,chair,chair,0.00,0079_nse_dnn_0.00_chair_10_n03376595_3838.JPEG
vgg,1,80,NaN,chair,chair,0.00,0080_nse_dnn_0.00_chair_10_n03376595_2734.JPEG
vgg,1,81,NaN,bear,bear,0.00,0081_nse_dnn_0.00_bear_10_n02132136_35749.JPEG
vgg,1,82,NaN,bear,bear,0.00,0082_nse_dnn_0.00_bear_10_n02134084_16841.JPEG
vgg,1,83,NaN,bear,bear,0.00,0083_nse_dnn_0.00_bear_10_n02134418_3855.JPEG
vgg,1,84,NaN,bear,bear,0.00,0084_nse_dnn_0.00_bear_10_n02133161_7688.JPEG
vgg,1,85,NaN,bear,bear,0.00,0085_nse_dnn_0.00_bear_10_n02132136_24408.JPEG
vgg,1,86,NaN,bear,bear,0.00,0086_nse_dnn_0.00_bear_10_n02134418_3833.JPEG
vgg,1,87,NaN,bear,bear,0.00,0087_nse_dnn_0.00_bear_10_n02133161_1728.JPEG
vgg,1,88,NaN,bear,bear,0.00,0088_nse_dnn_0.00_bear_10_n02132136_19498.JPEG
vgg,1,89,NaN,bear,bear,0.00,0089_nse_dnn_0.00_bear_10_n02134084_21523.JPEG
vgg,1,90,NaN,bear,bear,0.00,0090_nse_dnn_0.00_bear_10_n02134418_8516.JPEG
vgg,1,91,NaN,boat,boat,0.00,0091_nse_dnn_0.00_boat_10_n04612504_9558.JPEG
vgg,1,92,NaN,boat,boat,0.00,0092_nse_dnn_0.00_boat_10_n03344393_11590.JPEG
vgg,1,93,NaN,boat,boat,0.00,0093_nse_dnn_0.00_boat_10_n04612504_1869.JPEG
vgg,1,94,NaN,boat,boat,0.00,0094_nse_dnn_0.00_boat_10_n03344393_4657.JPEG
vgg,1,95,NaN,boat,boat,0.00,0095_nse_dnn_0.00_boat_10_n03662601_12531.JPEG
vgg,1,96,NaN,boat,boat,0.00,0096_nse_dnn_0.00_boat_10_n04273569_2465.JPEG
vgg,1,97,NaN,boat,boat,0.00,0097_nse_dnn_0.00_boat_10_n04273569_6059.JPEG
vgg,1,98,NaN,boat,boat,0.00,0098_nse_dnn_0.00_boat_10_n03344393_6128.JPEG
vgg,1,99,NaN,boat,boat,0.00,0099_nse_dnn_0.00_boat_10_n03344393_806.JPEG
vgg,1,100,NaN,airplane,boat,0.00,0100_nse_dnn_0.00_boat_10_n02951358_9738.JPEG
vgg,1,101,NaN,cat,cat,0.00,0101_nse_dnn_0.00_cat_10_n02123159_470.JPEG
vgg,1,102,NaN,cat,cat,0.00,0102_nse_dnn_0.00_cat_10_n02123159_2815.JPEG
vgg,1,103,NaN,cat,cat,0.00,0103_nse_dnn_0.00_cat_10_n02125311_15360.JPEG
vgg,1,104,NaN,cat,cat,0.00,0104_nse_dnn_0.00_cat_10_n02125311_20089.JPEG
vgg,1,105,NaN,cat,cat,0.00,0105_nse_dnn_0.00_cat_10_n02123159_8200.JPEG
vgg,1,106,NaN,cat,cat,0.00,0106_nse_dnn_0.00_cat_10_n02123045_3754.JPEG
vgg,1,107,NaN,cat,cat,0.00,0107_nse_dnn_0.00_cat_10_n02123045_16528.JPEG
vgg,1,108,NaN,dog,cat,0.00,0108_nse_dnn_0.00_cat_10_n02123159_3980.JPEG
vgg,1,109,NaN,cat,cat,0.00,0109_nse_dnn_0.00_cat_10_n02125311_45976.JPEG
vgg,1,110,NaN,cat,cat,0.00,0110_nse_dnn_0.00_cat_10_n02125311_13577.JPEG
vgg,1,111,NaN,bottle,bottle,0.00,0111_nse_dnn_0.00_bottle_10_n03937543_4779.JPEG
vgg,1,112,NaN,bottle,bottle,0.00,0112_nse_dnn_0.00_bottle_10_n03937543_5927.JPEG
vgg,1,113,NaN,bottle,bottle,0.00,0113_nse_dnn_0.00_bottle_10_n04557648_6529.JPEG
vgg,1,114,NaN,bottle,bottle,0.00,0114_nse_dnn_0.00_bottle_10_n04557648_27985.JPEG
vgg,1,115,NaN,bottle,bottle,0.00,0115_nse_dnn_0.00_bottle_10_n04557648_704.JPEG
vgg,1,116,NaN,bottle,bottle,0.00,0116_nse_dnn_0.00_bottle_10_n04591713_7690.JPEG
vgg,1,117,NaN,bottle,bottle,0.00,0117_nse_dnn_0.00_bottle_10_n04591713_6505.JPEG
vgg,1,118,NaN,bottle,bottle,0.00,0118_nse_dnn_0.00_bottle_10_n02823428_4865.JPEG
vgg,1,119,NaN,bottle,bottle,0.00,0119_nse_dnn_0.00_bottle_10_n03983396_4743.JPEG
vgg,1,120,NaN,bottle,bottle,0.00,0120_nse_dnn_0.00_bottle_10_n04560804_14583.JPEG
vgg,1,121,NaN,truck,truck,0.00,0121_nse_dnn_0.00_truck_10_n04467665_24709.JPEG
vgg,1,122,NaN,truck,truck,0.00,0122_nse_dnn_0.00_truck_10_n03796401_7422.JPEG
vgg,1,123,NaN,truck,truck,0.00,0123_nse_dnn_0.00_truck_10_n03417042_3868.JPEG
vgg,1,124,NaN,truck,truck,0.00,0124_nse_dnn_0.00_truck_10_n03417042_5396.JPEG
vgg,1,125,NaN,truck,truck,0.00,0125_nse_dnn_0.00_truck_10_n03796401_2866.JPEG
vgg,1,126,NaN,truck,truck,0.00,0126_nse_dnn_0.00_truck_10_n03417042_11946.JPEG
vgg,1,127,NaN,truck,truck,0.00,0127_nse_dnn_0.00_truck_10_n03796401_10719.JPEG
vgg,1,128,NaN,truck,truck,0.00,0128_nse_dnn_0.00_truck_10_n04467665_33081.JPEG
vgg,1,129,NaN,truck,truck,0.00,0129_nse_dnn_0.00_truck_10_n04467665_40226.JPEG
vgg,1,130,NaN,truck,truck,0.00,0130_nse_dnn_0.00_truck_10_n04467665_49826.JPEG
vgg,1,131,NaN,car,car,0.00,0131_nse_dnn_0.00_car_10_n02814533_4978.JPEG
vgg,1,132,NaN,car,car,0.00,0132_nse_dnn_0.00_car_10_n03100240_14950.JPEG
vgg,1,133,NaN,car,car,0.00,0133_nse_dnn_0.00_car_10_n02814533_1391.JPEG
vgg,1,134,NaN,car,car,0.00,0134_nse_dnn_0.00_car_10_n04285008_9102.JPEG
vgg,1,135,NaN,car,car,0.00,0135_nse_dnn_0.00_car_10_n02814533_9785.JPEG
vgg,1,136,NaN,car,car,0.00,0136_nse_dnn_0.00_car_10_n02814533_13770.JPEG
vgg,1,137,NaN,car,car,0.00,0137_nse_dnn_0.00_car_10_n02814533_80.JPEG
vgg,1,138,NaN,truck,car,0.00,0138_nse_dnn_0.00_car_10_n03100240_21243.JPEG
vgg,1,139,NaN,car,car,0.00,0139_nse_dnn_0.00_car_10_n04285008_15570.JPEG
vgg,1,140,NaN,car,car,0.00,0140_nse_dnn_0.00_car_10_n03100240_9264.JPEG
vgg,1,141,NaN,dog,bird,0.00,0141_nse_dnn_0.00_bird_10_n02028035_31084.JPEG
vgg,1,142,NaN,bird,bird,0.00,0142_nse_dnn_0.00_bird_10_n02051845_10009.JPEG
vgg,1,143,NaN,bird,bird,0.00,0143_nse_dnn_0.00_bird_10_n01622779_6272.JPEG
vgg,1,144,NaN,bird,bird,0.00,0144_nse_dnn_0.00_bird_10_n01855032_2283.JPEG
vgg,1,145,NaN,bird,bird,0.00,0145_nse_dnn_0.00_bird_10_n01530575_3007.JPEG
vgg,1,146,NaN,dog,bird,0.00,0146_nse_dnn_0.00_bird_10_n01796340_15079.JPEG
vgg,1,147,NaN,bird,bird,0.00,0147_nse_dnn_0.00_bird_10_n01614925_9190.JPEG
vgg,1,148,NaN,bird,bird,0.00,0148_nse_dnn_0.00_bird_10_n01530575_38960.JPEG
vgg,1,149,NaN,bird,bird,0.00,0149_nse_dnn_0.00_bird_10_n01592084_8515.JPEG
vgg,1,150,NaN,bird,bird,0.00,0150_nse_dnn_0.00_bird_10_n01855672_14120.JPEG
vgg,1,151,NaN,dog,dog,0.00,0151_nse_dnn_0.00_dog_10_n02095570_9304.JPEG
vgg,1,152,NaN,dog,dog,0.00,0152_nse_dnn_0.00_dog_10_n02093647_326.JPEG
vgg,1,153,NaN,dog,dog,0.00,0153_nse_dnn_0.00_dog_10_n02105251_6585.JPEG
vgg,1,154,NaN,dog,dog,0.00,0154_nse_dnn_0.00_dog_10_n02090379_5266.JPEG
vgg,1,155,NaN,dog,dog,0.00,0155_nse_dnn_0.00_dog_10_n02091032_11925.JPEG
vgg,1,156,NaN,dog,dog,0.00,0156_nse_dnn_0.00_dog_10_n02110063_16030.JPEG
vgg,1,157,NaN,dog,dog,0.00,0157_nse_dnn_0.00_dog_10_n02102480_5768.JPEG
vgg,1,158,NaN,dog,dog,0.00,0158_nse_dnn_0.00_dog_10_n02101388_2734.JPEG
vgg,1,159,NaN,dog,dog,0.00,0159_nse_dnn_0.00_dog_10_n02090721_2238.JPEG
vgg,1,160,NaN,dog,dog,0.00,0160_nse_dnn_0.00_dog_10_n02094433_3882.JPEG
vgg,1,161,NaN,bottle,knife,0.03,0161_nse_dnn_0.03_knife_10_n03041632_1143.JPEG
vgg,1,162,NaN,knife,knife,0.03,0162_nse_dnn_0.03_knife_10_n03041632_10777.JPEG
vgg,1,163,NaN,chair,knife,0.03,0163_nse_dnn_0.03_knife_10_n03041632_25498.JPEG
vgg,1,164,NaN,knife,knife,0.03,0164_nse_dnn_0.03_knife_10_n03041632_48149.JPEG
vgg,1,165,NaN,knife,knife,0.03,0165_nse_dnn_0.03_knife_10_n03041632_17338.JPEG
vgg,1,166,NaN,bicycle,knife,0.03,0166_nse_dnn_0.03_knife_10_n03041632_101553.JPEG
vgg,1,167,NaN,elephant,knife,0.03,0167_nse_dnn_0.03_knife_10_n03041632_18468.JPEG
vgg,1,168,NaN,clock,knife,0.03,0168_nse_dnn_0.03_knife_10_n03041632_24950.JPEG
vgg,1,169,NaN,knife,knife,0.03,0169_nse_dnn_0.03_knife_10_n03041632_3023.JPEG
vgg,1,170,NaN,bottle,knife,0.03,0170_nse_dnn_0.03_knife_10_n03041632_94620.JPEG
vgg,1,171,NaN,chair,keyboard,0.03,0171_nse_dnn_0.03_keyboard_10_n03085013_22937.JPEG
vgg,1,172,NaN,clock,keyboard,0.03,0172_nse_dnn_0.03_keyboard_10_n04505470_10041.JPEG
vgg,1,173,NaN,keyboard,keyboard,0.03,0173_nse_dnn_0.03_keyboard_10_n03085013_19471.JPEG
vgg,1,174,NaN,keyboard,keyboard,0.03,0174_nse_dnn_0.03_keyboard_10_n04505470_518.JPEG
vgg,1,175,NaN,keyboard,keyboard,0.03,0175_nse_dnn_0.03_keyboard_10_n04505470_4507.JPEG
vgg,1,176,NaN,keyboard,keyboard,0.03,0176_nse_dnn_0.03_keyboard_10_n03085013_13494.JPEG
vgg,1,177,NaN,keyboard,keyboard,0.03,0177_nse_dnn_0.03_keyboard_10_n03085013_18968.JPEG
vgg,1,178,NaN,keyboard,keyboard,0.03,0178_nse_dnn_0.03_keyboard_10_n03085013_22175.JPEG
vgg,1,179,NaN,keyboard,keyboard,0.03,0179_nse_dnn_0.03_keyboard_10_n04505470_315.JPEG
vgg,1,180,NaN,keyboard,keyboard,0.03,0180_nse_dnn_0.03_keyboard_10_n03085013_17914.JPEG
vgg,1,181,NaN,elephant,elephant,0.03,0181_nse_dnn_0.03_elephant_10_n02504458_7084.JPEG
vgg,1,182,NaN,elephant,elephant,0.03,0182_nse_dnn_0.03_elephant_10_n02504458_4884.JPEG
vgg,1,183,NaN,elephant,elephant,0.03,0183_nse_dnn_0.03_elephant_10_n02504013_10708.JPEG
vgg,1,184,NaN,elephant,elephant,0.03,0184_nse_dnn_0.03_elephant_10_n02504013_2065.JPEG
vgg,1,185,NaN,elephant,elephant,0.03,0185_nse_dnn_0.03_elephant_10_n02504013_1882.JPEG
vgg,1,186,NaN,dog,elephant,0.03,0186_nse_dnn_0.03_elephant_10_n02504458_8015.JPEG
vgg,1,187,NaN,elephant,elephant,0.03,0187_nse_dnn_0.03_elephant_10_n02504458_945.JPEG
vgg,1,188,NaN,elephant,elephant,0.03,0188_nse_dnn_0.03_elephant_10_n02504013_15852.JPEG
vgg,1,189,NaN,bicycle,elephant,0.03,0189_nse_dnn_0.03_elephant_10_n02504013_603.JPEG
vgg,1,190,NaN,elephant,elephant,0.03,0190_nse_dnn_0.03_elephant_10_n02504458_2807.JPEG
vgg,1,191,NaN,dog,bicycle,0.03,0191_nse_dnn_0.03_bicycle_10_n02835271_1701.JPEG
vgg,1,192,NaN,bicycle,bicycle,0.03,0192_nse_dnn_0.03_bicycle_10_n03792782_3631.JPEG
vgg,1,193,NaN,bicycle,bicycle,0.03,0193_nse_dnn_0.03_bicycle_10_n03792782_17111.JPEG
vgg,1,194,NaN,bicycle,bicycle,0.03,0194_nse_dnn_0.03_bicycle_10_n03792782_9413.JPEG
vgg,1,195,NaN,bicycle,bicycle,0.03,0195_nse_dnn_0.03_bicycle_10_n03792782_1225.JPEG
vgg,1,196,NaN,bicycle,bicycle,0.03,0196_nse_dnn_0.03_bicycle_10_n02835271_8170.JPEG
vgg,1,197,NaN,bicycle,bicycle,0.03,0197_nse_dnn_0.03_bicycle_10_n03792782_22692.JPEG
vgg,1,198,NaN,bicycle,bicycle,0.03,0198_nse_dnn_0.03_bicycle_10_n03792782_55532.JPEG
vgg,1,199,NaN,bicycle,bicycle,0.03,0199_nse_dnn_0.03_bicycle_10_n02835271_7866.JPEG
vgg,1,200,NaN,bicycle,bicycle,0.03,0200_nse_dnn_0.03_bicycle_10_n02835271_5785.JPEG
vgg,1,201,NaN,airplane,airplane,0.03,0201_nse_dnn_0.03_airplane_10_n02690373_7281.JPEG
vgg,1,202,NaN,airplane,airplane,0.03,0202_nse_dnn_0.03_airplane_10_n02690373_7115.JPEG
vgg,1,203,NaN,airplane,airplane,0.03,0203_nse_dnn_0.03_airplane_10_n02690373_8538.JPEG
vgg,1,204,NaN,bottle,airplane,0.03,0204_nse_dnn_0.03_airplane_10_n02690373_4064.JPEG
vgg,1,205,NaN,airplane,airplane,0.03,0205_nse_dnn_0.03_airplane_10_n02690373_2758.JPEG
vgg,1,206,NaN,airplane,airplane,0.03,0206_nse_dnn_0.03_airplane_10_n02690373_9.JPEG
vgg,1,207,NaN,airplane,airplane,0.03,0207_nse_dnn_0.03_airplane_10_n02690373_5786.JPEG
vgg,1,208,NaN,airplane,airplane,0.03,0208_nse_dnn_0.03_airplane_10_n02690373_3090.JPEG
vgg,1,209,NaN,airplane,airplane,0.03,0209_nse_dnn_0.03_airplane_10_n02690373_3407.JPEG
vgg,1,210,NaN,airplane,airplane,0.03,0210_nse_dnn_0.03_airplane_10_n02690373_10423.JPEG
vgg,1,211,NaN,bird,clock,0.03,0211_nse_dnn_0.03_clock_10_n02708093_5031.JPEG
vgg,1,212,NaN,clock,clock,0.03,0212_nse_dnn_0.03_clock_10_n04548280_10066.JPEG
vgg,1,213,NaN,clock,clock,0.03,0213_nse_dnn_0.03_clock_10_n03196217_1234.JPEG
vgg,1,214,NaN,clock,clock,0.03,0214_nse_dnn_0.03_clock_10_n03196217_3697.JPEG
vgg,1,215,NaN,clock,clock,0.03,0215_nse_dnn_0.03_clock_10_n04548280_1254.JPEG
vgg,1,216,NaN,clock,clock,0.03,0216_nse_dnn_0.03_clock_10_n03196217_3022.JPEG
vgg,1,217,NaN,clock,clock,0.03,0217_nse_dnn_0.03_clock_10_n04548280_23690.JPEG
vgg,1,218,NaN,clock,clock,0.03,0218_nse_dnn_0.03_clock_10_n02708093_1246.JPEG
vgg,1,219,NaN,clock,clock,0.03,0219_nse_dnn_0.03_clock_10_n04548280_3305.JPEG
vgg,1,220,NaN,clock,clock,0.03,0220_nse_dnn_0.03_clock_10_n03196217_8251.JPEG
vgg,1,221,NaN,oven,oven,0.03,0221_nse_dnn_0.03_oven_10_n04111531_14959.JPEG
vgg,1,222,NaN,dog,oven,0.03,0222_nse_dnn_0.03_oven_10_n04111531_8309.JPEG
vgg,1,223,NaN,oven,oven,0.03,0223_nse_dnn_0.03_oven_10_n04111531_8805.JPEG
vgg,1,224,NaN,oven,oven,0.03,0224_nse_dnn_0.03_oven_10_n04111531_10722.JPEG
vgg,1,225,NaN,bear,oven,0.03,0225_nse_dnn_0.03_oven_10_n04111531_1009.JPEG
vgg,1,226,NaN,oven,oven,0.03,0226_nse_dnn_0.03_oven_10_n04111531_7955.JPEG
vgg,1,227,NaN,truck,oven,0.03,0227_nse_dnn_0.03_oven_10_n04111531_14871.JPEG
vgg,1,228,NaN,oven,oven,0.03,0228_nse_dnn_0.03_oven_10_n04111531_12942.JPEG
vgg,1,229,NaN,bottle,oven,0.03,0229_nse_dnn_0.03_oven_10_n04111531_8181.JPEG
vgg,1,230,NaN,oven,oven,0.03,0230_nse_dnn_0.03_oven_10_n04111531_547.JPEG
vgg,1,231,NaN,chair,chair,0.03,0231_nse_dnn_0.03_chair_10_n02791124_2675.JPEG
vgg,1,232,NaN,clock,chair,0.03,0232_nse_dnn_0.03_chair_10_n02791124_7147.JPEG
vgg,1,233,NaN,chair,chair,0.03,0233_nse_dnn_0.03_chair_10_n04099969_56075.JPEG
vgg,1,234,NaN,chair,chair,0.03,0234_nse_dnn_0.03_chair_10_n03376595_8964.JPEG
vgg,1,235,NaN,chair,chair,0.03,0235_nse_dnn_0.03_chair_10_n02791124_3198.JPEG
vgg,1,236,NaN,chair,chair,0.03,0236_nse_dnn_0.03_chair_10_n04429376_15334.JPEG
vgg,1,237,NaN,chair,chair,0.03,0237_nse_dnn_0.03_chair_10_n02791124_5199.JPEG
vgg,1,238,NaN,chair,chair,0.03,0238_nse_dnn_0.03_chair_10_n03376595_10318.JPEG
vgg,1,239,NaN,chair,chair,0.03,0239_nse_dnn_0.03_chair_10_n03376595_17854.JPEG
vgg,1,240,NaN,chair,chair,0.03,0240_nse_dnn_0.03_chair_10_n02791124_2301.JPEG
vgg,1,241,NaN,bear,bear,0.03,0241_nse_dnn_0.03_bear_10_n02134418_1957.JPEG
vgg,1,242,NaN,bear,bear,0.03,0242_nse_dnn_0.03_bear_10_n02133161_2010.JPEG
vgg,1,243,NaN,boat,bear,0.03,0243_nse_dnn_0.03_bear_10_n02132136_13556.JPEG
vgg,1,244,NaN,bear,bear,0.03,0244_nse_dnn_0.03_bear_10_n02133161_18593.JPEG
vgg,1,245,NaN,bear,bear,0.03,0245_nse_dnn_0.03_bear_10_n02133161_2038.JPEG
vgg,1,246,NaN,bear,bear,0.03,0246_nse_dnn_0.03_bear_10_n02134418_4099.JPEG
vgg,1,247,NaN,bear,bear,0.03,0247_nse_dnn_0.03_bear_10_n02132136_10423.JPEG
vgg,1,248,NaN,bear,bear,0.03,0248_nse_dnn_0.03_bear_10_n02133161_8982.JPEG
vgg,1,249,NaN,dog,bear,0.03,0249_nse_dnn_0.03_bear_10_n02134418_3322.JPEG
vgg,1,250,NaN,bear,bear,0.03,0250_nse_dnn_0.03_bear_10_n02134418_60.JPEG
vgg,1,251,NaN,boat,boat,0.03,0251_nse_dnn_0.03_boat_10_n02951358_34756.JPEG
vgg,1,252,NaN,boat,boat,0.03,0252_nse_dnn_0.03_boat_10_n03344393_4762.JPEG
vgg,1,253,NaN,boat,boat,0.03,0253_nse_dnn_0.03_boat_10_n03344393_11013.JPEG
vgg,1,254,NaN,boat,boat,0.03,0254_nse_dnn_0.03_boat_10_n02951358_31101.JPEG
vgg,1,255,NaN,truck,boat,0.03,0255_nse_dnn_0.03_boat_10_n04273569_21070.JPEG
vgg,1,256,NaN,boat,boat,0.03,0256_nse_dnn_0.03_boat_10_n03662601_14683.JPEG
vgg,1,257,NaN,airplane,boat,0.03,0257_nse_dnn_0.03_boat_10_n02951358_32429.JPEG
vgg,1,258,NaN,boat,boat,0.03,0258_nse_dnn_0.03_boat_10_n02951358_13490.JPEG
vgg,1,259,NaN,boat,boat,0.03,0259_nse_dnn_0.03_boat_10_n03662601_5273.JPEG
vgg,1,260,NaN,boat,boat,0.03,0260_nse_dnn_0.03_boat_10_n03344393_732.JPEG
vgg,1,261,NaN,cat,cat,0.03,0261_nse_dnn_0.03_cat_10_n02123159_6997.JPEG
vgg,1,262,NaN,cat,cat,0.03,0262_nse_dnn_0.03_cat_10_n02124075_2903.JPEG
vgg,1,263,NaN,cat,cat,0.03,0263_nse_dnn_0.03_cat_10_n02123394_417.JPEG
vgg,1,264,NaN,cat,cat,0.03,0264_nse_dnn_0.03_cat_10_n02124075_6405.JPEG
vgg,1,265,NaN,cat,cat,0.03,0265_nse_dnn_0.03_cat_10_n02123159_7103.JPEG
vgg,1,266,NaN,dog,cat,0.03,0266_nse_dnn_0.03_cat_10_n02124075_10162.JPEG
vgg,1,267,NaN,cat,cat,0.03,0267_nse_dnn_0.03_cat_10_n02125311_36622.JPEG
vgg,1,268,NaN,cat,cat,0.03,0268_nse_dnn_0.03_cat_10_n02124075_9481.JPEG
vgg,1,269,NaN,cat,cat,0.03,0269_nse_dnn_0.03_cat_10_n02124075_15412.JPEG
vgg,1,270,NaN,cat,cat,0.03,0270_nse_dnn_0.03_cat_10_n02123159_6071.JPEG
vgg,1,271,NaN,bottle,bottle,0.03,0271_nse_dnn_0.03_bottle_10_n03937543_502.JPEG
vgg,1,272,NaN,bottle,bottle,0.03,0272_nse_dnn_0.03_bottle_10_n03983396_14361.JPEG
vgg,1,273,NaN,bottle,bottle,0.03,0273_nse_dnn_0.03_bottle_10_n04557648_5641.JPEG
vgg,1,274,NaN,bottle,bottle,0.03,0274_nse_dnn_0.03_bottle_10_n02823428_7360.JPEG
vgg,1,275,NaN,bottle,bottle,0.03,0275_nse_dnn_0.03_bottle_10_n03937543_585.JPEG
vgg,1,276,NaN,bottle,bottle,0.03,0276_nse_dnn_0.03_bottle_10_n03983396_2166.JPEG
vgg,1,277,NaN,bottle,bottle,0.03,0277_nse_dnn_0.03_bottle_10_n04557648_3405.JPEG
vgg,1,278,NaN,bottle,bottle,0.03,0278_nse_dnn_0.03_bottle_10_n02823428_3907.JPEG
vgg,1,279,NaN,bottle,bottle,0.03,0279_nse_dnn_0.03_bottle_10_n03983396_2538.JPEG
vgg,1,280,NaN,bottle,bottle,0.03,0280_nse_dnn_0.03_bottle_10_n04557648_1339.JPEG
vgg,1,281,NaN,boat,truck,0.03,0281_nse_dnn_0.03_truck_10_n03796401_932.JPEG
vgg,1,282,NaN,truck,truck,0.03,0282_nse_dnn_0.03_truck_10_n03417042_4489.JPEG
vgg,1,283,NaN,truck,truck,0.03,0283_nse_dnn_0.03_truck_10_n03796401_4119.JPEG
vgg,1,284,NaN,truck,truck,0.03,0284_nse_dnn_0.03_truck_10_n04467665_65606.JPEG
vgg,1,285,NaN,truck,truck,0.03,0285_nse_dnn_0.03_truck_10_n03796401_4475.JPEG
vgg,1,286,NaN,truck,truck,0.03,0286_nse_dnn_0.03_truck_10_n03417042_1376.JPEG
vgg,1,287,NaN,truck,truck,0.03,0287_nse_dnn_0.03_truck_10_n03417042_23468.JPEG
vgg,1,288,NaN,truck,truck,0.03,0288_nse_dnn_0.03_truck_10_n03417042_23067.JPEG
vgg,1,289,NaN,truck,truck,0.03,0289_nse_dnn_0.03_truck_10_n03417042_22.JPEG
vgg,1,290,NaN,truck,truck,0.03,0290_nse_dnn_0.03_truck_10_n03796401_16366.JPEG
vgg,1,291,NaN,car,car,0.03,0291_nse_dnn_0.03_car_10_n03100240_5387.JPEG
vgg,1,292,NaN,car,car,0.03,0292_nse_dnn_0.03_car_10_n04285008_5012.JPEG
vgg,1,293,NaN,truck,car,0.03,0293_nse_dnn_0.03_car_10_n03100240_15676.JPEG
vgg,1,294,NaN,car,car,0.03,0294_nse_dnn_0.03_car_10_n04285008_16775.JPEG
vgg,1,295,NaN,car,car,0.03,0295_nse_dnn_0.03_car_10_n03100240_8702.JPEG
vgg,1,296,NaN,truck,car,0.03,0296_nse_dnn_0.03_car_10_n03100240_14051.JPEG
vgg,1,297,NaN,car,car,0.03,0297_nse_dnn_0.03_car_10_n04285008_3835.JPEG
vgg,1,298,NaN,car,car,0.03,0298_nse_dnn_0.03_car_10_n03100240_14252.JPEG
vgg,1,299,NaN,car,car,0.03,0299_nse_dnn_0.03_car_10_n03100240_16145.JPEG
vgg,1,300,NaN,car,car,0.03,0300_nse_dnn_0.03_car_10_n04285008_2108.JPEG
vgg,1,301,NaN,bird,bird,0.03,0301_nse_dnn_0.03_bird_10_n01532829_10580.JPEG
vgg,1,302,NaN,bird,bird,0.03,0302_nse_dnn_0.03_bird_10_n02025239_2984.JPEG
vgg,1,303,NaN,bird,bird,0.03,0303_nse_dnn_0.03_bird_10_n01537544_5303.JPEG
vgg,1,304,NaN,bird,bird,0.03,0304_nse_dnn_0.03_bird_10_n01817953_5626.JPEG
vgg,1,305,NaN,bird,bird,0.03,0305_nse_dnn_0.03_bird_10_n02051845_11222.JPEG
vgg,1,306,NaN,bird,bird,0.03,0306_nse_dnn_0.03_bird_10_n02051845_11935.JPEG
vgg,1,307,NaN,bird,bird,0.03,0307_nse_dnn_0.03_bird_10_n01855032_484.JPEG
vgg,1,308,NaN,bird,bird,0.03,0308_nse_dnn_0.03_bird_10_n01843065_6533.JPEG
vgg,1,309,NaN,bird,bird,0.03,0309_nse_dnn_0.03_bird_10_n01614925_6203.JPEG
vgg,1,310,NaN,dog,bird,0.03,0310_nse_dnn_0.03_bird_10_n01855672_2910.JPEG
vgg,1,311,NaN,dog,dog,0.03,0311_nse_dnn_0.03_dog_10_n02107142_16677.JPEG
vgg,1,312,NaN,dog,dog,0.03,0312_nse_dnn_0.03_dog_10_n02109525_10696.JPEG
vgg,1,313,NaN,dog,dog,0.03,0313_nse_dnn_0.03_dog_10_n02106550_12612.JPEG
vgg,1,314,NaN,dog,dog,0.03,0314_nse_dnn_0.03_dog_10_n02104029_6671.JPEG
vgg,1,315,NaN,dog,dog,0.03,0315_nse_dnn_0.03_dog_10_n02102040_4874.JPEG
vgg,1,316,NaN,dog,dog,0.03,0316_nse_dnn_0.03_dog_10_n02109525_1723.JPEG
vgg,1,317,NaN,dog,dog,0.03,0317_nse_dnn_0.03_dog_10_n02094433_3406.JPEG
vgg,1,318,NaN,dog,dog,0.03,0318_nse_dnn_0.03_dog_10_n02106662_41295.JPEG
vgg,1,319,NaN,dog,dog,0.03,0319_nse_dnn_0.03_dog_10_n02101388_10133.JPEG
vgg,1,320,NaN,dog,dog,0.03,0320_nse_dnn_0.03_dog_10_n02096294_3065.JPEG
vgg,1,321,NaN,keyboard,knife,0.05,0321_nse_dnn_0.05_knife_10_n03041632_94470.JPEG
vgg,1,322,NaN,knife,knife,0.05,0322_nse_dnn_0.05_knife_10_n03041632_54627.JPEG
vgg,1,323,NaN,clock,knife,0.05,0323_nse_dnn_0.05_knife_10_n03041632_82878.JPEG
vgg,1,324,NaN,dog,knife,0.05,0324_nse_dnn_0.05_knife_10_n03041632_44363.JPEG
vgg,1,325,NaN,knife,knife,0.05,0325_nse_dnn_0.05_knife_10_n03041632_21017.JPEG
vgg,1,326,NaN,knife,knife,0.05,0326_nse_dnn_0.05_knife_10_n03041632_2058.JPEG
vgg,1,327,NaN,knife,knife,0.05,0327_nse_dnn_0.05_knife_10_n03041632_105581.JPEG
vgg,1,328,NaN,knife,knife,0.05,0328_nse_dnn_0.05_knife_10_n03041632_4057.JPEG
vgg,1,329,NaN,clock,knife,0.05,0329_nse_dnn_0.05_knife_10_n03041632_45264.JPEG
vgg,1,330,NaN,dog,knife,0.05,0330_nse_dnn_0.05_knife_10_n03041632_102828.JPEG
vgg,1,331,NaN,keyboard,keyboard,0.05,0331_nse_dnn_0.05_keyboard_10_n04505470_3314.JPEG
vgg,1,332,NaN,keyboard,keyboard,0.05,0332_nse_dnn_0.05_keyboard_10_n03085013_21055.JPEG
vgg,1,333,NaN,keyboard,keyboard,0.05,0333_nse_dnn_0.05_keyboard_10_n04505470_2114.JPEG
vgg,1,334,NaN,keyboard,keyboard,0.05,0334_nse_dnn_0.05_keyboard_10_n04505470_2601.JPEG
vgg,1,335,NaN,dog,keyboard,0.05,0335_nse_dnn_0.05_keyboard_10_n03085013_21025.JPEG
vgg,1,336,NaN,keyboard,keyboard,0.05,0336_nse_dnn_0.05_keyboard_10_n03085013_7399.JPEG
vgg,1,337,NaN,keyboard,keyboard,0.05,0337_nse_dnn_0.05_keyboard_10_n03085013_21880.JPEG
vgg,1,338,NaN,keyboard,keyboard,0.05,0338_nse_dnn_0.05_keyboard_10_n04505470_10211.JPEG
vgg,1,339,NaN,keyboard,keyboard,0.05,0339_nse_dnn_0.05_keyboard_10_n03085013_21161.JPEG
vgg,1,340,NaN,keyboard,keyboard,0.05,0340_nse_dnn_0.05_keyboard_10_n04505470_10076.JPEG
vgg,1,341,NaN,airplane,elephant,0.05,0341_nse_dnn_0.05_elephant_10_n02504458_5539.JPEG
vgg,1,342,NaN,elephant,elephant,0.05,0342_nse_dnn_0.05_elephant_10_n02504013_1534.JPEG
vgg,1,343,NaN,elephant,elephant,0.05,0343_nse_dnn_0.05_elephant_10_n02504013_1669.JPEG
vgg,1,344,NaN,elephant,elephant,0.05,0344_nse_dnn_0.05_elephant_10_n02504013_10410.JPEG
vgg,1,345,NaN,elephant,elephant,0.05,0345_nse_dnn_0.05_elephant_10_n02504458_7506.JPEG
vgg,1,346,NaN,truck,elephant,0.05,0346_nse_dnn_0.05_elephant_10_n02504013_7898.JPEG
vgg,1,347,NaN,dog,elephant,0.05,0347_nse_dnn_0.05_elephant_10_n02504013_6615.JPEG
vgg,1,348,NaN,elephant,elephant,0.05,0348_nse_dnn_0.05_elephant_10_n02504458_3292.JPEG
vgg,1,349,NaN,elephant,elephant,0.05,0349_nse_dnn_0.05_elephant_10_n02504013_3459.JPEG
vgg,1,350,NaN,elephant,elephant,0.05,0350_nse_dnn_0.05_elephant_10_n02504013_6086.JPEG
vgg,1,351,NaN,bicycle,bicycle,0.05,0351_nse_dnn_0.05_bicycle_10_n02835271_3774.JPEG
vgg,1,352,NaN,bicycle,bicycle,0.05,0352_nse_dnn_0.05_bicycle_10_n02835271_19361.JPEG
vgg,1,353,NaN,bicycle,bicycle,0.05,0353_nse_dnn_0.05_bicycle_10_n02835271_1915.JPEG
vgg,1,354,NaN,bicycle,bicycle,0.05,0354_nse_dnn_0.05_bicycle_10_n02835271_542.JPEG
vgg,1,355,NaN,bicycle,bicycle,0.05,0355_nse_dnn_0.05_bicycle_10_n02835271_14499.JPEG
vgg,1,356,NaN,bicycle,bicycle,0.05,0356_nse_dnn_0.05_bicycle_10_n02835271_6122.JPEG
vgg,1,357,NaN,bicycle,bicycle,0.05,0357_nse_dnn_0.05_bicycle_10_n02835271_20195.JPEG
vgg,1,358,NaN,bicycle,bicycle,0.05,0358_nse_dnn_0.05_bicycle_10_n02835271_12701.JPEG
vgg,1,359,NaN,bicycle,bicycle,0.05,0359_nse_dnn_0.05_bicycle_10_n02835271_25519.JPEG
vgg,1,360,NaN,bicycle,bicycle,0.05,0360_nse_dnn_0.05_bicycle_10_n02835271_5113.JPEG
vgg,1,361,NaN,airplane,airplane,0.05,0361_nse_dnn_0.05_airplane_10_n02690373_18936.JPEG
vgg,1,362,NaN,airplane,airplane,0.05,0362_nse_dnn_0.05_airplane_10_n02690373_1291.JPEG
vgg,1,363,NaN,airplane,airplane,0.05,0363_nse_dnn_0.05_airplane_10_n02690373_7647.JPEG
vgg,1,364,NaN,airplane,airplane,0.05,0364_nse_dnn_0.05_airplane_10_n02690373_8069.JPEG
vgg,1,365,NaN,airplane,airplane,0.05,0365_nse_dnn_0.05_airplane_10_n02690373_18468.JPEG
vgg,1,366,NaN,airplane,airplane,0.05,0366_nse_dnn_0.05_airplane_10_n02690373_9829.JPEG
vgg,1,367,NaN,airplane,airplane,0.05,0367_nse_dnn_0.05_airplane_10_n02690373_2075.JPEG
vgg,1,368,NaN,airplane,airplane,0.05,0368_nse_dnn_0.05_airplane_10_n02690373_1450.JPEG
vgg,1,369,NaN,airplane,airplane,0.05,0369_nse_dnn_0.05_airplane_10_n02690373_9376.JPEG
vgg,1,370,NaN,airplane,airplane,0.05,0370_nse_dnn_0.05_airplane_10_n02690373_3993.JPEG
vgg,1,371,NaN,clock,clock,0.05,0371_nse_dnn_0.05_clock_10_n04548280_549.JPEG
vgg,1,372,NaN,clock,clock,0.05,0372_nse_dnn_0.05_clock_10_n04548280_1645.JPEG
vgg,1,373,NaN,clock,clock,0.05,0373_nse_dnn_0.05_clock_10_n04548280_4323.JPEG
vgg,1,374,NaN,dog,clock,0.05,0374_nse_dnn_0.05_clock_10_n02708093_1917.JPEG
vgg,1,375,NaN,clock,clock,0.05,0375_nse_dnn_0.05_clock_10_n03196217_1566.JPEG
vgg,1,376,NaN,keyboard,clock,0.05,0376_nse_dnn_0.05_clock_10_n04548280_3799.JPEG
vgg,1,377,NaN,clock,clock,0.05,0377_nse_dnn_0.05_clock_10_n04548280_5414.JPEG
vgg,1,378,NaN,clock,clock,0.05,0378_nse_dnn_0.05_clock_10_n04548280_7384.JPEG
vgg,1,379,NaN,clock,clock,0.05,0379_nse_dnn_0.05_clock_10_n03196217_10219.JPEG
vgg,1,380,NaN,clock,clock,0.05,0380_nse_dnn_0.05_clock_10_n04548280_757.JPEG
vgg,1,381,NaN,oven,oven,0.05,0381_nse_dnn_0.05_oven_10_n04111531_584.JPEG
vgg,1,382,NaN,chair,oven,0.05,0382_nse_dnn_0.05_oven_10_n04111531_2027.JPEG
vgg,1,383,NaN,oven,oven,0.05,0383_nse_dnn_0.05_oven_10_n04111531_1794.JPEG
vgg,1,384,NaN,dog,oven,0.05,0384_nse_dnn_0.05_oven_10_n04111531_7883.JPEG
vgg,1,385,NaN,dog,oven,0.05,0385_nse_dnn_0.05_oven_10_n04111531_9210.JPEG
vgg,1,386,NaN,truck,oven,0.05,0386_nse_dnn_0.05_oven_10_n04111531_2855.JPEG
vgg,1,387,NaN,clock,oven,0.05,0387_nse_dnn_0.05_oven_10_n04111531_2923.JPEG
vgg,1,388,NaN,truck,oven,0.05,0388_nse_dnn_0.05_oven_10_n04111531_17507.JPEG
vgg,1,389,NaN,oven,oven,0.05,0389_nse_dnn_0.05_oven_10_n04111531_1898.JPEG
vgg,1,390,NaN,oven,oven,0.05,0390_nse_dnn_0.05_oven_10_n04111531_10011.JPEG
vgg,1,391,NaN,chair,chair,0.05,0391_nse_dnn_0.05_chair_10_n02791124_7483.JPEG
vgg,1,392,NaN,chair,chair,0.05,0392_nse_dnn_0.05_chair_10_n04099969_3909.JPEG
vgg,1,393,NaN,chair,chair,0.05,0393_nse_dnn_0.05_chair_10_n04099969_18676.JPEG
vgg,1,394,NaN,chair,chair,0.05,0394_nse_dnn_0.05_chair_10_n02791124_1296.JPEG
vgg,1,395,NaN,chair,chair,0.05,0395_nse_dnn_0.05_chair_10_n02791124_3326.JPEG
vgg,1,396,NaN,chair,chair,0.05,0396_nse_dnn_0.05_chair_10_n04429376_21668.JPEG
vgg,1,397,NaN,chair,chair,0.05,0397_nse_dnn_0.05_chair_10_n02791124_3529.JPEG
vgg,1,398,NaN,clock,chair,0.05,0398_nse_dnn_0.05_chair_10_n03376595_16128.JPEG
vgg,1,399,NaN,chair,chair,0.05,0399_nse_dnn_0.05_chair_10_n04099969_34144.JPEG
vgg,1,400,NaN,chair,chair,0.05,0400_nse_dnn_0.05_chair_10_n03376595_14143.JPEG
vgg,1,401,NaN,elephant,bear,0.05,0401_nse_dnn_0.05_bear_10_n02132136_3972.JPEG
vgg,1,402,NaN,bear,bear,0.05,0402_nse_dnn_0.05_bear_10_n02132136_9171.JPEG
vgg,1,403,NaN,bear,bear,0.05,0403_nse_dnn_0.05_bear_10_n02133161_5418.JPEG
vgg,1,404,NaN,dog,bear,0.05,0404_nse_dnn_0.05_bear_10_n02132136_8689.JPEG
vgg,1,405,NaN,dog,bear,0.05,0405_nse_dnn_0.05_bear_10_n02133161_14122.JPEG
vgg,1,406,NaN,boat,bear,0.05,0406_nse_dnn_0.05_bear_10_n02134084_23813.JPEG
vgg,1,407,NaN,bear,bear,0.05,0407_nse_dnn_0.05_bear_10_n02133161_4098.JPEG
vgg,1,408,NaN,bear,bear,0.05,0408_nse_dnn_0.05_bear_10_n02132136_32253.JPEG
vgg,1,409,NaN,bear,bear,0.05,0409_nse_dnn_0.05_bear_10_n02134084_10236.JPEG
vgg,1,410,NaN,boat,bear,0.05,0410_nse_dnn_0.05_bear_10_n02134418_2591.JPEG
vgg,1,411,NaN,boat,boat,0.05,0411_nse_dnn_0.05_boat_10_n03662601_28619.JPEG
vgg,1,412,NaN,boat,boat,0.05,0412_nse_dnn_0.05_boat_10_n02951358_2261.JPEG
vgg,1,413,NaN,boat,boat,0.05,0413_nse_dnn_0.05_boat_10_n04612504_25802.JPEG
vgg,1,414,NaN,boat,boat,0.05,0414_nse_dnn_0.05_boat_10_n03662601_12169.JPEG
vgg,1,415,NaN,boat,boat,0.05,0415_nse_dnn_0.05_boat_10_n02951358_30335.JPEG
vgg,1,416,NaN,boat,boat,0.05,0416_nse_dnn_0.05_boat_10_n03344393_3978.JPEG
vgg,1,417,NaN,boat,boat,0.05,0417_nse_dnn_0.05_boat_10_n03344393_8618.JPEG
vgg,1,418,NaN,truck,boat,0.05,0418_nse_dnn_0.05_boat_10_n04273569_2389.JPEG
vgg,1,419,NaN,boat,boat,0.05,0419_nse_dnn_0.05_boat_10_n02951358_15113.JPEG
vgg,1,420,NaN,boat,boat,0.05,0420_nse_dnn_0.05_boat_10_n03662601_10734.JPEG
vgg,1,421,NaN,dog,cat,0.05,0421_nse_dnn_0.05_cat_10_n02123597_14171.JPEG
vgg,1,422,NaN,cat,cat,0.05,0422_nse_dnn_0.05_cat_10_n02125311_13547.JPEG
vgg,1,423,NaN,dog,cat,0.05,0423_nse_dnn_0.05_cat_10_n02123045_9059.JPEG
vgg,1,424,NaN,cat,cat,0.05,0424_nse_dnn_0.05_cat_10_n02123394_6583.JPEG
vgg,1,425,NaN,cat,cat,0.05,0425_nse_dnn_0.05_cat_10_n02123159_3290.JPEG
vgg,1,426,NaN,cat,cat,0.05,0426_nse_dnn_0.05_cat_10_n02125311_27593.JPEG
vgg,1,427,NaN,cat,cat,0.05,0427_nse_dnn_0.05_cat_10_n02123159_7396.JPEG
vgg,1,428,NaN,cat,cat,0.05,0428_nse_dnn_0.05_cat_10_n02125311_5259.JPEG
vgg,1,429,NaN,dog,cat,0.05,0429_nse_dnn_0.05_cat_10_n02123597_422.JPEG
vgg,1,430,NaN,cat,cat,0.05,0430_nse_dnn_0.05_cat_10_n02123597_11248.JPEG
vgg,1,431,NaN,bottle,bottle,0.05,0431_nse_dnn_0.05_bottle_10_n03937543_5222.JPEG
vgg,1,432,NaN,bottle,bottle,0.05,0432_nse_dnn_0.05_bottle_10_n03983396_10701.JPEG
vgg,1,433,NaN,bottle,bottle,0.05,0433_nse_dnn_0.05_bottle_10_n03983396_2496.JPEG
vgg,1,434,NaN,bottle,bottle,0.05,0434_nse_dnn_0.05_bottle_10_n04591713_4971.JPEG
vgg,1,435,NaN,bottle,bottle,0.05,0435_nse_dnn_0.05_bottle_10_n04560804_5319.JPEG
vgg,1,436,NaN,truck,bottle,0.05,0436_nse_dnn_0.05_bottle_10_n02823428_14988.JPEG
vgg,1,437,NaN,dog,bottle,0.05,0437_nse_dnn_0.05_bottle_10_n04557648_5995.JPEG
vgg,1,438,NaN,clock,bottle,0.05,0438_nse_dnn_0.05_bottle_10_n02823428_7535.JPEG
vgg,1,439,NaN,bottle,bottle,0.05,0439_nse_dnn_0.05_bottle_10_n04557648_9286.JPEG
vgg,1,440,NaN,bottle,bottle,0.05,0440_nse_dnn_0.05_bottle_10_n03983396_2002.JPEG
vgg,1,441,NaN,truck,truck,0.05,0441_nse_dnn_0.05_truck_10_n03796401_29408.JPEG
vgg,1,442,NaN,truck,truck,0.05,0442_nse_dnn_0.05_truck_10_n04467665_71278.JPEG
vgg,1,443,NaN,truck,truck,0.05,0443_nse_dnn_0.05_truck_10_n03417042_8912.JPEG
vgg,1,444,NaN,truck,truck,0.05,0444_nse_dnn_0.05_truck_10_n04467665_58523.JPEG
vgg,1,445,NaN,truck,truck,0.05,0445_nse_dnn_0.05_truck_10_n03796401_7432.JPEG
vgg,1,446,NaN,truck,truck,0.05,0446_nse_dnn_0.05_truck_10_n04467665_71083.JPEG
vgg,1,447,NaN,truck,truck,0.05,0447_nse_dnn_0.05_truck_10_n04467665_1187.JPEG
vgg,1,448,NaN,truck,truck,0.05,0448_nse_dnn_0.05_truck_10_n03796401_1149.JPEG
vgg,1,449,NaN,truck,truck,0.05,0449_nse_dnn_0.05_truck_10_n03417042_11602.JPEG
vgg,1,450,NaN,truck,truck,0.05,0450_nse_dnn_0.05_truck_10_n03417042_29342.JPEG
vgg,1,451,NaN,truck,car,0.05,0451_nse_dnn_0.05_car_10_n03100240_22356.JPEG
vgg,1,452,NaN,truck,car,0.05,0452_nse_dnn_0.05_car_10_n03100240_2562.JPEG
vgg,1,453,NaN,car,car,0.05,0453_nse_dnn_0.05_car_10_n03100240_6701.JPEG
vgg,1,454,NaN,truck,car,0.05,0454_nse_dnn_0.05_car_10_n02814533_59447.JPEG
vgg,1,455,NaN,car,car,0.05,0455_nse_dnn_0.05_car_10_n02814533_92940.JPEG
vgg,1,456,NaN,car,car,0.05,0456_nse_dnn_0.05_car_10_n03100240_6626.JPEG
vgg,1,457,NaN,car,car,0.05,0457_nse_dnn_0.05_car_10_n03100240_6613.JPEG
vgg,1,458,NaN,car,car,0.05,0458_nse_dnn_0.05_car_10_n03100240_10774.JPEG
vgg,1,459,NaN,car,car,0.05,0459_nse_dnn_0.05_car_10_n04285008_11756.JPEG
vgg,1,460,NaN,truck,car,0.05,0460_nse_dnn_0.05_car_10_n03100240_10513.JPEG
vgg,1,461,NaN,bird,bird,0.05,0461_nse_dnn_0.05_bird_10_n01828970_2943.JPEG
vgg,1,462,NaN,bird,bird,0.05,0462_nse_dnn_0.05_bird_10_n01531178_14416.JPEG
vgg,1,463,NaN,bird,bird,0.05,0463_nse_dnn_0.05_bird_10_n02002724_8711.JPEG
vgg,1,464,NaN,bird,bird,0.05,0464_nse_dnn_0.05_bird_10_n02028035_425.JPEG
vgg,1,465,NaN,boat,bird,0.05,0465_nse_dnn_0.05_bird_10_n01601694_15016.JPEG
vgg,1,466,NaN,dog,bird,0.05,0466_nse_dnn_0.05_bird_10_n01860187_17321.JPEG
vgg,1,467,NaN,bird,bird,0.05,0467_nse_dnn_0.05_bird_10_n01614925_9141.JPEG
vgg,1,468,NaN,dog,bird,0.05,0468_nse_dnn_0.05_bird_10_n01795545_6909.JPEG
vgg,1,469,NaN,bird,bird,0.05,0469_nse_dnn_0.05_bird_10_n01614925_5459.JPEG
vgg,1,470,NaN,clock,bird,0.05,0470_nse_dnn_0.05_bird_10_n02028035_3592.JPEG
vgg,1,471,NaN,dog,dog,0.05,0471_nse_dnn_0.05_dog_10_n02099712_6641.JPEG
vgg,1,472,NaN,dog,dog,0.05,0472_nse_dnn_0.05_dog_10_n02106166_7532.JPEG
vgg,1,473,NaN,dog,dog,0.05,0473_nse_dnn_0.05_dog_10_n02096051_1485.JPEG
vgg,1,474,NaN,dog,dog,0.05,0474_nse_dnn_0.05_dog_10_n02107574_2838.JPEG
vgg,1,475,NaN,dog,dog,0.05,0475_nse_dnn_0.05_dog_10_n02111129_1949.JPEG
vgg,1,476,NaN,dog,dog,0.05,0476_nse_dnn_0.05_dog_10_n02110958_6817.JPEG
vgg,1,477,NaN,dog,dog,0.05,0477_nse_dnn_0.05_dog_10_n02111500_6584.JPEG
vgg,1,478,NaN,dog,dog,0.05,0478_nse_dnn_0.05_dog_10_n02087394_28455.JPEG
vgg,1,479,NaN,dog,dog,0.05,0479_nse_dnn_0.05_dog_10_n02102040_4272.JPEG
vgg,1,480,NaN,dog,dog,0.05,0480_nse_dnn_0.05_dog_10_n02112350_7054.JPEG
vgg,1,481,NaN,dog,knife,0.10,0481_nse_dnn_0.10_knife_10_n03041632_3171.JPEG
vgg,1,482,NaN,clock,knife,0.10,0482_nse_dnn_0.10_knife_10_n03041632_27963.JPEG
vgg,1,483,NaN,dog,knife,0.10,0483_nse_dnn_0.10_knife_10_n03041632_18959.JPEG
vgg,1,484,NaN,clock,knife,0.10,0484_nse_dnn_0.10_knife_10_n03041632_1006.JPEG
vgg,1,485,NaN,chair,knife,0.10,0485_nse_dnn_0.10_knife_10_n03041632_7090.JPEG
vgg,1,486,NaN,dog,knife,0.10,0486_nse_dnn_0.10_knife_10_n03041632_49570.JPEG
vgg,1,487,NaN,cat,knife,0.10,0487_nse_dnn_0.10_knife_10_n03041632_4037.JPEG
vgg,1,488,NaN,clock,knife,0.10,0488_nse_dnn_0.10_knife_10_n03041632_6708.JPEG
vgg,1,489,NaN,dog,knife,0.10,0489_nse_dnn_0.10_knife_10_n03041632_39840.JPEG
vgg,1,490,NaN,bird,knife,0.10,0490_nse_dnn_0.10_knife_10_n03041632_3617.JPEG
vgg,1,491,NaN,keyboard,keyboard,0.10,0491_nse_dnn_0.10_keyboard_10_n03085013_22669.JPEG
vgg,1,492,NaN,keyboard,keyboard,0.10,0492_nse_dnn_0.10_keyboard_10_n03085013_18797.JPEG
vgg,1,493,NaN,keyboard,keyboard,0.10,0493_nse_dnn_0.10_keyboard_10_n04505470_3259.JPEG
vgg,1,494,NaN,keyboard,keyboard,0.10,0494_nse_dnn_0.10_keyboard_10_n04505470_6682.JPEG
vgg,1,495,NaN,clock,keyboard,0.10,0495_nse_dnn_0.10_keyboard_10_n03085013_22996.JPEG
vgg,1,496,NaN,dog,keyboard,0.10,0496_nse_dnn_0.10_keyboard_10_n04505470_3947.JPEG
vgg,1,497,NaN,keyboard,keyboard,0.10,0497_nse_dnn_0.10_keyboard_10_n03085013_7010.JPEG
vgg,1,498,NaN,keyboard,keyboard,0.10,0498_nse_dnn_0.10_keyboard_10_n03085013_20661.JPEG
vgg,1,499,NaN,keyboard,keyboard,0.10,0499_nse_dnn_0.10_keyboard_10_n03085013_29941.JPEG
vgg,1,500,NaN,dog,keyboard,0.10,0500_nse_dnn_0.10_keyboard_10_n04505470_1334.JPEG
vgg,1,501,NaN,truck,elephant,0.10,0501_nse_dnn_0.10_elephant_10_n02504458_8209.JPEG
vgg,1,502,NaN,bear,elephant,0.10,0502_nse_dnn_0.10_elephant_10_n02504458_694.JPEG
vgg,1,503,NaN,bird,elephant,0.10,0503_nse_dnn_0.10_elephant_10_n02504013_1733.JPEG
vgg,1,504,NaN,elephant,elephant,0.10,0504_nse_dnn_0.10_elephant_10_n02504013_7771.JPEG
vgg,1,505,NaN,truck,elephant,0.10,0505_nse_dnn_0.10_elephant_10_n02504013_5864.JPEG
vgg,1,506,NaN,bird,elephant,0.10,0506_nse_dnn_0.10_elephant_10_n02504013_4337.JPEG
vgg,1,507,NaN,elephant,elephant,0.10,0507_nse_dnn_0.10_elephant_10_n02504458_1716.JPEG
vgg,1,508,NaN,bird,elephant,0.10,0508_nse_dnn_0.10_elephant_10_n02504458_5923.JPEG
vgg,1,509,NaN,bear,elephant,0.10,0509_nse_dnn_0.10_elephant_10_n02504458_8172.JPEG
vgg,1,510,NaN,elephant,elephant,0.10,0510_nse_dnn_0.10_elephant_10_n02504458_7051.JPEG
vgg,1,511,NaN,bird,bicycle,0.10,0511_nse_dnn_0.10_bicycle_10_n02835271_9623.JPEG
vgg,1,512,NaN,bicycle,bicycle,0.10,0512_nse_dnn_0.10_bicycle_10_n03792782_5130.JPEG
vgg,1,513,NaN,clock,bicycle,0.10,0513_nse_dnn_0.10_bicycle_10_n02835271_10931.JPEG
vgg,1,514,NaN,dog,bicycle,0.10,0514_nse_dnn_0.10_bicycle_10_n02835271_9904.JPEG
vgg,1,515,NaN,dog,bicycle,0.10,0515_nse_dnn_0.10_bicycle_10_n02835271_2461.JPEG
vgg,1,516,NaN,bicycle,bicycle,0.10,0516_nse_dnn_0.10_bicycle_10_n03792782_33167.JPEG
vgg,1,517,NaN,bicycle,bicycle,0.10,0517_nse_dnn_0.10_bicycle_10_n03792782_1989.JPEG
vgg,1,518,NaN,bicycle,bicycle,0.10,0518_nse_dnn_0.10_bicycle_10_n03792782_14605.JPEG
vgg,1,519,NaN,bicycle,bicycle,0.10,0519_nse_dnn_0.10_bicycle_10_n02835271_11974.JPEG
vgg,1,520,NaN,bicycle,bicycle,0.10,0520_nse_dnn_0.10_bicycle_10_n02835271_23993.JPEG
vgg,1,521,NaN,boat,airplane,0.10,0521_nse_dnn_0.10_airplane_10_n02690373_2232.JPEG
vgg,1,522,NaN,airplane,airplane,0.10,0522_nse_dnn_0.10_airplane_10_n02690373_17603.JPEG
vgg,1,523,NaN,boat,airplane,0.10,0523_nse_dnn_0.10_airplane_10_n02690373_2447.JPEG
vgg,1,524,NaN,bird,airplane,0.10,0524_nse_dnn_0.10_airplane_10_n02690373_1451.JPEG
vgg,1,525,NaN,boat,airplane,0.10,0525_nse_dnn_0.10_airplane_10_n02690373_6672.JPEG
vgg,1,526,NaN,airplane,airplane,0.10,0526_nse_dnn_0.10_airplane_10_n02690373_3696.JPEG
vgg,1,527,NaN,boat,airplane,0.10,0527_nse_dnn_0.10_airplane_10_n02690373_1469.JPEG
vgg,1,528,NaN,boat,airplane,0.10,0528_nse_dnn_0.10_airplane_10_n02690373_4134.JPEG
vgg,1,529,NaN,airplane,airplane,0.10,0529_nse_dnn_0.10_airplane_10_n02690373_6621.JPEG
vgg,1,530,NaN,boat,airplane,0.10,0530_nse_dnn_0.10_airplane_10_n02690373_8461.JPEG
vgg,1,531,NaN,clock,clock,0.10,0531_nse_dnn_0.10_clock_10_n04548280_1109.JPEG
vgg,1,532,NaN,clock,clock,0.10,0532_nse_dnn_0.10_clock_10_n04548280_5701.JPEG
vgg,1,533,NaN,clock,clock,0.10,0533_nse_dnn_0.10_clock_10_n03196217_170.JPEG
vgg,1,534,NaN,clock,clock,0.10,0534_nse_dnn_0.10_clock_10_n04548280_2687.JPEG
vgg,1,535,NaN,clock,clock,0.10,0535_nse_dnn_0.10_clock_10_n03196217_3608.JPEG
vgg,1,536,NaN,clock,clock,0.10,0536_nse_dnn_0.10_clock_10_n03196217_946.JPEG
vgg,1,537,NaN,bottle,clock,0.10,0537_nse_dnn_0.10_clock_10_n04548280_6869.JPEG
vgg,1,538,NaN,clock,clock,0.10,0538_nse_dnn_0.10_clock_10_n02708093_145.JPEG
vgg,1,539,NaN,knife,clock,0.10,0539_nse_dnn_0.10_clock_10_n02708093_2260.JPEG
vgg,1,540,NaN,clock,clock,0.10,0540_nse_dnn_0.10_clock_10_n04548280_1041.JPEG
vgg,1,541,NaN,boat,oven,0.10,0541_nse_dnn_0.10_oven_10_n04111531_8553.JPEG
vgg,1,542,NaN,clock,oven,0.10,0542_nse_dnn_0.10_oven_10_n04111531_17004.JPEG
vgg,1,543,NaN,clock,oven,0.10,0543_nse_dnn_0.10_oven_10_n04111531_3191.JPEG
vgg,1,544,NaN,dog,oven,0.10,0544_nse_dnn_0.10_oven_10_n04111531_14559.JPEG
vgg,1,545,NaN,dog,oven,0.10,0545_nse_dnn_0.10_oven_10_n04111531_519.JPEG
vgg,1,546,NaN,clock,oven,0.10,0546_nse_dnn_0.10_oven_10_n04111531_17006.JPEG
vgg,1,547,NaN,cat,oven,0.10,0547_nse_dnn_0.10_oven_10_n04111531_7221.JPEG
vgg,1,548,NaN,boat,oven,0.10,0548_nse_dnn_0.10_oven_10_n04111531_14611.JPEG
vgg,1,549,NaN,truck,oven,0.10,0549_nse_dnn_0.10_oven_10_n04111531_2150.JPEG
vgg,1,550,NaN,dog,oven,0.10,0550_nse_dnn_0.10_oven_10_n04111531_7728.JPEG
vgg,1,551,NaN,chair,chair,0.10,0551_nse_dnn_0.10_chair_10_n02791124_2649.JPEG
vgg,1,552,NaN,chair,chair,0.10,0552_nse_dnn_0.10_chair_10_n04429376_18546.JPEG
vgg,1,553,NaN,chair,chair,0.10,0553_nse_dnn_0.10_chair_10_n02791124_7419.JPEG
vgg,1,554,NaN,dog,chair,0.10,0554_nse_dnn_0.10_chair_10_n02791124_13620.JPEG
vgg,1,555,NaN,chair,chair,0.10,0555_nse_dnn_0.10_chair_10_n04099969_17380.JPEG
vgg,1,556,NaN,chair,chair,0.10,0556_nse_dnn_0.10_chair_10_n03376595_11352.JPEG
vgg,1,557,NaN,chair,chair,0.10,0557_nse_dnn_0.10_chair_10_n02791124_774.JPEG
vgg,1,558,NaN,chair,chair,0.10,0558_nse_dnn_0.10_chair_10_n04099969_25613.JPEG
vgg,1,559,NaN,clock,chair,0.10,0559_nse_dnn_0.10_chair_10_n03376595_839.JPEG
vgg,1,560,NaN,chair,chair,0.10,0560_nse_dnn_0.10_chair_10_n02791124_1962.JPEG
vgg,1,561,NaN,dog,bear,0.10,0561_nse_dnn_0.10_bear_10_n02134418_315.JPEG
vgg,1,562,NaN,dog,bear,0.10,0562_nse_dnn_0.10_bear_10_n02132136_19521.JPEG
vgg,1,563,NaN,boat,bear,0.10,0563_nse_dnn_0.10_bear_10_n02134418_6012.JPEG
vgg,1,564,NaN,dog,bear,0.10,0564_nse_dnn_0.10_bear_10_n02133161_24490.JPEG
vgg,1,565,NaN,cat,bear,0.10,0565_nse_dnn_0.10_bear_10_n02133161_461.JPEG
vgg,1,566,NaN,bear,bear,0.10,0566_nse_dnn_0.10_bear_10_n02133161_2993.JPEG
vgg,1,567,NaN,dog,bear,0.10,0567_nse_dnn_0.10_bear_10_n02133161_3975.JPEG
vgg,1,568,NaN,dog,bear,0.10,0568_nse_dnn_0.10_bear_10_n02134418_6068.JPEG
vgg,1,569,NaN,dog,bear,0.10,0569_nse_dnn_0.10_bear_10_n02134418_5163.JPEG
vgg,1,570,NaN,dog,bear,0.10,0570_nse_dnn_0.10_bear_10_n02132136_2828.JPEG
vgg,1,571,NaN,clock,boat,0.10,0571_nse_dnn_0.10_boat_10_n04612504_2132.JPEG
vgg,1,572,NaN,boat,boat,0.10,0572_nse_dnn_0.10_boat_10_n02951358_10108.JPEG
vgg,1,573,NaN,dog,boat,0.10,0573_nse_dnn_0.10_boat_10_n03344393_5837.JPEG
vgg,1,574,NaN,clock,boat,0.10,0574_nse_dnn_0.10_boat_10_n04273569_3162.JPEG
vgg,1,575,NaN,clock,boat,0.10,0575_nse_dnn_0.10_boat_10_n02951358_3540.JPEG
vgg,1,576,NaN,clock,boat,0.10,0576_nse_dnn_0.10_boat_10_n04273569_10997.JPEG
vgg,1,577,NaN,boat,boat,0.10,0577_nse_dnn_0.10_boat_10_n03662601_10090.JPEG
vgg,1,578,NaN,boat,boat,0.10,0578_nse_dnn_0.10_boat_10_n03344393_3423.JPEG
vgg,1,579,NaN,boat,boat,0.10,0579_nse_dnn_0.10_boat_10_n04612504_3657.JPEG
vgg,1,580,NaN,boat,boat,0.10,0580_nse_dnn_0.10_boat_10_n04273569_7417.JPEG
vgg,1,581,NaN,dog,cat,0.10,0581_nse_dnn_0.10_cat_10_n02123159_172.JPEG
vgg,1,582,NaN,cat,cat,0.10,0582_nse_dnn_0.10_cat_10_n02123159_12179.JPEG
vgg,1,583,NaN,dog,cat,0.10,0583_nse_dnn_0.10_cat_10_n02123045_13202.JPEG
vgg,1,584,NaN,dog,cat,0.10,0584_nse_dnn_0.10_cat_10_n02123394_6792.JPEG
vgg,1,585,NaN,cat,cat,0.10,0585_nse_dnn_0.10_cat_10_n02123045_11978.JPEG
vgg,1,586,NaN,boat,cat,0.10,0586_nse_dnn_0.10_cat_10_n02124075_5453.JPEG
vgg,1,587,NaN,elephant,cat,0.10,0587_nse_dnn_0.10_cat_10_n02124075_8890.JPEG
vgg,1,588,NaN,bird,cat,0.10,0588_nse_dnn_0.10_cat_10_n02123045_939.JPEG
vgg,1,589,NaN,cat,cat,0.10,0589_nse_dnn_0.10_cat_10_n02123597_7820.JPEG
vgg,1,590,NaN,cat,cat,0.10,0590_nse_dnn_0.10_cat_10_n02123597_5894.JPEG
vgg,1,591,NaN,truck,bottle,0.10,0591_nse_dnn_0.10_bottle_10_n03937543_668.JPEG
vgg,1,592,NaN,chair,bottle,0.10,0592_nse_dnn_0.10_bottle_10_n04579145_2896.JPEG
vgg,1,593,NaN,bicycle,bottle,0.10,0593_nse_dnn_0.10_bottle_10_n04557648_789.JPEG
vgg,1,594,NaN,bottle,bottle,0.10,0594_nse_dnn_0.10_bottle_10_n04591713_3605.JPEG
vgg,1,595,NaN,dog,bottle,0.10,0595_nse_dnn_0.10_bottle_10_n04591713_4291.JPEG
vgg,1,596,NaN,clock,bottle,0.10,0596_nse_dnn_0.10_bottle_10_n04557648_3436.JPEG
vgg,1,597,NaN,dog,bottle,0.10,0597_nse_dnn_0.10_bottle_10_n04579145_93.JPEG
vgg,1,598,NaN,clock,bottle,0.10,0598_nse_dnn_0.10_bottle_10_n02823428_4322.JPEG
vgg,1,599,NaN,clock,bottle,0.10,0599_nse_dnn_0.10_bottle_10_n04560804_13059.JPEG
vgg,1,600,NaN,bottle,bottle,0.10,0600_nse_dnn_0.10_bottle_10_n03937543_5933.JPEG
vgg,1,601,NaN,clock,truck,0.10,0601_nse_dnn_0.10_truck_10_n04467665_69545.JPEG
vgg,1,602,NaN,truck,truck,0.10,0602_nse_dnn_0.10_truck_10_n04467665_67189.JPEG
vgg,1,603,NaN,airplane,truck,0.10,0603_nse_dnn_0.10_truck_10_n03796401_14189.JPEG
vgg,1,604,NaN,truck,truck,0.10,0604_nse_dnn_0.10_truck_10_n03796401_1837.JPEG
vgg,1,605,NaN,truck,truck,0.10,0605_nse_dnn_0.10_truck_10_n03796401_7529.JPEG
vgg,1,606,NaN,truck,truck,0.10,0606_nse_dnn_0.10_truck_10_n03417042_27361.JPEG
vgg,1,607,NaN,truck,truck,0.10,0607_nse_dnn_0.10_truck_10_n03417042_5105.JPEG
vgg,1,608,NaN,truck,truck,0.10,0608_nse_dnn_0.10_truck_10_n04467665_3580.JPEG
vgg,1,609,NaN,truck,truck,0.10,0609_nse_dnn_0.10_truck_10_n04467665_14142.JPEG
vgg,1,610,NaN,truck,truck,0.10,0610_nse_dnn_0.10_truck_10_n03796401_25113.JPEG
vgg,1,611,NaN,boat,car,0.10,0611_nse_dnn_0.10_car_10_n03100240_1072.JPEG
vgg,1,612,NaN,truck,car,0.10,0612_nse_dnn_0.10_car_10_n04285008_8552.JPEG
vgg,1,613,NaN,car,car,0.10,0613_nse_dnn_0.10_car_10_n03100240_2971.JPEG
vgg,1,614,NaN,truck,car,0.10,0614_nse_dnn_0.10_car_10_n02814533_40178.JPEG
vgg,1,615,NaN,truck,car,0.10,0615_nse_dnn_0.10_car_10_n03100240_22466.JPEG
vgg,1,616,NaN,truck,car,0.10,0616_nse_dnn_0.10_car_10_n03100240_12906.JPEG
vgg,1,617,NaN,dog,car,0.10,0617_nse_dnn_0.10_car_10_n04285008_6204.JPEG
vgg,1,618,NaN,truck,car,0.10,0618_nse_dnn_0.10_car_10_n04285008_12045.JPEG
vgg,1,619,NaN,truck,car,0.10,0619_nse_dnn_0.10_car_10_n02814533_7708.JPEG
vgg,1,620,NaN,car,car,0.10,0620_nse_dnn_0.10_car_10_n03100240_11881.JPEG
vgg,1,621,NaN,boat,bird,0.10,0621_nse_dnn_0.10_bird_10_n02028035_30960.JPEG
vgg,1,622,NaN,bird,bird,0.10,0622_nse_dnn_0.10_bird_10_n01798484_236.JPEG
vgg,1,623,NaN,dog,bird,0.10,0623_nse_dnn_0.10_bird_10_n02037110_5669.JPEG
vgg,1,624,NaN,bird,bird,0.10,0624_nse_dnn_0.10_bird_10_n01795545_10952.JPEG
vgg,1,625,NaN,bird,bird,0.10,0625_nse_dnn_0.10_bird_10_n01829413_2579.JPEG
vgg,1,626,NaN,dog,bird,0.10,0626_nse_dnn_0.10_bird_10_n01622779_3957.JPEG
vgg,1,627,NaN,dog,bird,0.10,0627_nse_dnn_0.10_bird_10_n02018795_1163.JPEG
vgg,1,628,NaN,clock,bird,0.10,0628_nse_dnn_0.10_bird_10_n02007558_3446.JPEG
vgg,1,629,NaN,dog,bird,0.10,0629_nse_dnn_0.10_bird_10_n02009912_19811.JPEG
vgg,1,630,NaN,bird,bird,0.10,0630_nse_dnn_0.10_bird_10_n02037110_3540.JPEG
vgg,1,631,NaN,dog,dog,0.10,0631_nse_dnn_0.10_dog_10_n02091831_14058.JPEG
vgg,1,632,NaN,dog,dog,0.10,0632_nse_dnn_0.10_dog_10_n02107312_5940.JPEG
vgg,1,633,NaN,dog,dog,0.10,0633_nse_dnn_0.10_dog_10_n02097130_380.JPEG
vgg,1,634,NaN,dog,dog,0.10,0634_nse_dnn_0.10_dog_10_n02102318_6169.JPEG
vgg,1,635,NaN,dog,dog,0.10,0635_nse_dnn_0.10_dog_10_n02097658_1916.JPEG
vgg,1,636,NaN,dog,dog,0.10,0636_nse_dnn_0.10_dog_10_n02088466_10220.JPEG
vgg,1,637,NaN,dog,dog,0.10,0637_nse_dnn_0.10_dog_10_n02109961_2609.JPEG
vgg,1,638,NaN,boat,dog,0.10,0638_nse_dnn_0.10_dog_10_n02110958_4197.JPEG
vgg,1,639,NaN,dog,dog,0.10,0639_nse_dnn_0.10_dog_10_n02110063_6920.JPEG
vgg,1,640,NaN,dog,dog,0.10,0640_nse_dnn_0.10_dog_10_n02088238_13104.JPEG
vgg,1,641,NaN,dog,knife,0.20,0641_nse_dnn_0.20_knife_10_n03041632_46914.JPEG
vgg,1,642,NaN,dog,knife,0.20,0642_nse_dnn_0.20_knife_10_n03041632_7116.JPEG
vgg,1,643,NaN,dog,knife,0.20,0643_nse_dnn_0.20_knife_10_n03041632_31932.JPEG
vgg,1,644,NaN,dog,knife,0.20,0644_nse_dnn_0.20_knife_10_n03041632_18311.JPEG
vgg,1,645,NaN,dog,knife,0.20,0645_nse_dnn_0.20_knife_10_n03041632_20707.JPEG
vgg,1,646,NaN,dog,knife,0.20,0646_nse_dnn_0.20_knife_10_n03041632_38540.JPEG
vgg,1,647,NaN,clock,knife,0.20,0647_nse_dnn_0.20_knife_10_n03041632_47759.JPEG
vgg,1,648,NaN,cat,knife,0.20,0648_nse_dnn_0.20_knife_10_n03041632_4806.JPEG
vgg,1,649,NaN,dog,knife,0.20,0649_nse_dnn_0.20_knife_10_n03041632_27848.JPEG
vgg,1,650,NaN,dog,knife,0.20,0650_nse_dnn_0.20_knife_10_n03041632_37618.JPEG
vgg,1,651,NaN,cat,keyboard,0.20,0651_nse_dnn_0.20_keyboard_10_n04505470_1335.JPEG
vgg,1,652,NaN,bird,keyboard,0.20,0652_nse_dnn_0.20_keyboard_10_n03085013_19630.JPEG
vgg,1,653,NaN,keyboard,keyboard,0.20,0653_nse_dnn_0.20_keyboard_10_n03085013_24653.JPEG
vgg,1,654,NaN,dog,keyboard,0.20,0654_nse_dnn_0.20_keyboard_10_n04505470_1537.JPEG
vgg,1,655,NaN,keyboard,keyboard,0.20,0655_nse_dnn_0.20_keyboard_10_n03085013_1704.JPEG
vgg,1,656,NaN,clock,keyboard,0.20,0656_nse_dnn_0.20_keyboard_10_n04505470_4983.JPEG
vgg,1,657,NaN,dog,keyboard,0.20,0657_nse_dnn_0.20_keyboard_10_n03085013_28854.JPEG
vgg,1,658,NaN,dog,keyboard,0.20,0658_nse_dnn_0.20_keyboard_10_n03085013_23369.JPEG
vgg,1,659,NaN,keyboard,keyboard,0.20,0659_nse_dnn_0.20_keyboard_10_n04505470_4543.JPEG
vgg,1,660,NaN,dog,keyboard,0.20,0660_nse_dnn_0.20_keyboard_10_n03085013_24109.JPEG
vgg,1,661,NaN,dog,elephant,0.20,0661_nse_dnn_0.20_elephant_10_n02504013_4373.JPEG
vgg,1,662,NaN,clock,elephant,0.20,0662_nse_dnn_0.20_elephant_10_n02504458_7337.JPEG
vgg,1,663,NaN,dog,elephant,0.20,0663_nse_dnn_0.20_elephant_10_n02504458_5697.JPEG
vgg,1,664,NaN,dog,elephant,0.20,0664_nse_dnn_0.20_elephant_10_n02504013_4444.JPEG
vgg,1,665,NaN,boat,elephant,0.20,0665_nse_dnn_0.20_elephant_10_n02504458_11785.JPEG
vgg,1,666,NaN,bird,elephant,0.20,0666_nse_dnn_0.20_elephant_10_n02504458_193.JPEG
vgg,1,667,NaN,dog,elephant,0.20,0667_nse_dnn_0.20_elephant_10_n02504013_1692.JPEG
vgg,1,668,NaN,bird,elephant,0.20,0668_nse_dnn_0.20_elephant_10_n02504458_2607.JPEG
vgg,1,669,NaN,dog,elephant,0.20,0669_nse_dnn_0.20_elephant_10_n02504458_5824.JPEG
vgg,1,670,NaN,dog,elephant,0.20,0670_nse_dnn_0.20_elephant_10_n02504013_7724.JPEG
vgg,1,671,NaN,dog,bicycle,0.20,0671_nse_dnn_0.20_bicycle_10_n03792782_16408.JPEG
vgg,1,672,NaN,dog,bicycle,0.20,0672_nse_dnn_0.20_bicycle_10_n02835271_14891.JPEG
vgg,1,673,NaN,boat,bicycle,0.20,0673_nse_dnn_0.20_bicycle_10_n02835271_35812.JPEG
vgg,1,674,NaN,dog,bicycle,0.20,0674_nse_dnn_0.20_bicycle_10_n02835271_6374.JPEG
vgg,1,675,NaN,clock,bicycle,0.20,0675_nse_dnn_0.20_bicycle_10_n02835271_1831.JPEG
vgg,1,676,NaN,clock,bicycle,0.20,0676_nse_dnn_0.20_bicycle_10_n03792782_3467.JPEG
vgg,1,677,NaN,dog,bicycle,0.20,0677_nse_dnn_0.20_bicycle_10_n03792782_51156.JPEG
vgg,1,678,NaN,clock,bicycle,0.20,0678_nse_dnn_0.20_bicycle_10_n02835271_1393.JPEG
vgg,1,679,NaN,clock,bicycle,0.20,0679_nse_dnn_0.20_bicycle_10_n02835271_14820.JPEG
vgg,1,680,NaN,cat,bicycle,0.20,0680_nse_dnn_0.20_bicycle_10_n03792782_63425.JPEG
vgg,1,681,NaN,bird,airplane,0.20,0681_nse_dnn_0.20_airplane_10_n02690373_7142.JPEG
vgg,1,682,NaN,clock,airplane,0.20,0682_nse_dnn_0.20_airplane_10_n02690373_1436.JPEG
vgg,1,683,NaN,bird,airplane,0.20,0683_nse_dnn_0.20_airplane_10_n02690373_3859.JPEG
vgg,1,684,NaN,dog,airplane,0.20,0684_nse_dnn_0.20_airplane_10_n02690373_4024.JPEG
vgg,1,685,NaN,dog,airplane,0.20,0685_nse_dnn_0.20_airplane_10_n02690373_12436.JPEG
vgg,1,686,NaN,bird,airplane,0.20,0686_nse_dnn_0.20_airplane_10_n02690373_4695.JPEG
vgg,1,687,NaN,dog,airplane,0.20,0687_nse_dnn_0.20_airplane_10_n02690373_7118.JPEG
vgg,1,688,NaN,dog,airplane,0.20,0688_nse_dnn_0.20_airplane_10_n02690373_3912.JPEG
vgg,1,689,NaN,dog,airplane,0.20,0689_nse_dnn_0.20_airplane_10_n02690373_9071.JPEG
vgg,1,690,NaN,bird,airplane,0.20,0690_nse_dnn_0.20_airplane_10_n02690373_3021.JPEG
vgg,1,691,NaN,clock,clock,0.20,0691_nse_dnn_0.20_clock_10_n02708093_4976.JPEG
vgg,1,692,NaN,cat,clock,0.20,0692_nse_dnn_0.20_clock_10_n04548280_8914.JPEG
vgg,1,693,NaN,clock,clock,0.20,0693_nse_dnn_0.20_clock_10_n03196217_11657.JPEG
vgg,1,694,NaN,cat,clock,0.20,0694_nse_dnn_0.20_clock_10_n03196217_2859.JPEG
vgg,1,695,NaN,cat,clock,0.20,0695_nse_dnn_0.20_clock_10_n04548280_8990.JPEG
vgg,1,696,NaN,clock,clock,0.20,0696_nse_dnn_0.20_clock_10_n02708093_425.JPEG
vgg,1,697,NaN,clock,clock,0.20,0697_nse_dnn_0.20_clock_10_n04548280_8008.JPEG
vgg,1,698,NaN,clock,clock,0.20,0698_nse_dnn_0.20_clock_10_n03196217_2447.JPEG
vgg,1,699,NaN,clock,clock,0.20,0699_nse_dnn_0.20_clock_10_n02708093_1714.JPEG
vgg,1,700,NaN,clock,clock,0.20,0700_nse_dnn_0.20_clock_10_n03196217_343.JPEG
vgg,1,701,NaN,chair,oven,0.20,0701_nse_dnn_0.20_oven_10_n04111531_4418.JPEG
vgg,1,702,NaN,clock,oven,0.20,0702_nse_dnn_0.20_oven_10_n04111531_6622.JPEG
vgg,1,703,NaN,clock,oven,0.20,0703_nse_dnn_0.20_oven_10_n04111531_5570.JPEG
vgg,1,704,NaN,dog,oven,0.20,0704_nse_dnn_0.20_oven_10_n04111531_22138.JPEG
vgg,1,705,NaN,dog,oven,0.20,0705_nse_dnn_0.20_oven_10_n04111531_7096.JPEG
vgg,1,706,NaN,clock,oven,0.20,0706_nse_dnn_0.20_oven_10_n04111531_9712.JPEG
vgg,1,707,NaN,dog,oven,0.20,0707_nse_dnn_0.20_oven_10_n04111531_7717.JPEG
vgg,1,708,NaN,dog,oven,0.20,0708_nse_dnn_0.20_oven_10_n04111531_11848.JPEG
vgg,1,709,NaN,bird,oven,0.20,0709_nse_dnn_0.20_oven_10_n04111531_10336.JPEG
vgg,1,710,NaN,cat,oven,0.20,0710_nse_dnn_0.20_oven_10_n04111531_9322.JPEG
vgg,1,711,NaN,bird,chair,0.20,0711_nse_dnn_0.20_chair_10_n04429376_14251.JPEG
vgg,1,712,NaN,bottle,chair,0.20,0712_nse_dnn_0.20_chair_10_n04429376_3891.JPEG
vgg,1,713,NaN,chair,chair,0.20,0713_nse_dnn_0.20_chair_10_n02791124_4268.JPEG
vgg,1,714,NaN,clock,chair,0.20,0714_nse_dnn_0.20_chair_10_n04429376_8167.JPEG
vgg,1,715,NaN,clock,chair,0.20,0715_nse_dnn_0.20_chair_10_n02791124_17045.JPEG
vgg,1,716,NaN,clock,chair,0.20,0716_nse_dnn_0.20_chair_10_n03376595_8812.JPEG
vgg,1,717,NaN,dog,chair,0.20,0717_nse_dnn_0.20_chair_10_n02791124_7560.JPEG
vgg,1,718,NaN,bottle,chair,0.20,0718_nse_dnn_0.20_chair_10_n04099969_37347.JPEG
vgg,1,719,NaN,clock,chair,0.20,0719_nse_dnn_0.20_chair_10_n04429376_5362.JPEG
vgg,1,720,NaN,clock,chair,0.20,0720_nse_dnn_0.20_chair_10_n03376595_3940.JPEG
vgg,1,721,NaN,dog,bear,0.20,0721_nse_dnn_0.20_bear_10_n02134418_2920.JPEG
vgg,1,722,NaN,dog,bear,0.20,0722_nse_dnn_0.20_bear_10_n02134084_7817.JPEG
vgg,1,723,NaN,dog,bear,0.20,0723_nse_dnn_0.20_bear_10_n02132136_489.JPEG
vgg,1,724,NaN,dog,bear,0.20,0724_nse_dnn_0.20_bear_10_n02133161_2053.JPEG
vgg,1,725,NaN,dog,bear,0.20,0725_nse_dnn_0.20_bear_10_n02132136_28568.JPEG
vgg,1,726,NaN,dog,bear,0.20,0726_nse_dnn_0.20_bear_10_n02134084_1910.JPEG
vgg,1,727,NaN,cat,bear,0.20,0727_nse_dnn_0.20_bear_10_n02133161_5341.JPEG
vgg,1,728,NaN,dog,bear,0.20,0728_nse_dnn_0.20_bear_10_n02133161_3850.JPEG
vgg,1,729,NaN,dog,bear,0.20,0729_nse_dnn_0.20_bear_10_n02134084_15296.JPEG
vgg,1,730,NaN,dog,bear,0.20,0730_nse_dnn_0.20_bear_10_n02134084_4581.JPEG
vgg,1,731,NaN,dog,boat,0.20,0731_nse_dnn_0.20_boat_10_n04612504_238.JPEG
vgg,1,732,NaN,bird,boat,0.20,0732_nse_dnn_0.20_boat_10_n02951358_8889.JPEG
vgg,1,733,NaN,bird,boat,0.20,0733_nse_dnn_0.20_boat_10_n04612504_5947.JPEG
vgg,1,734,NaN,boat,boat,0.20,0734_nse_dnn_0.20_boat_10_n03662601_22272.JPEG
vgg,1,735,NaN,clock,boat,0.20,0735_nse_dnn_0.20_boat_10_n03662601_15001.JPEG
vgg,1,736,NaN,dog,boat,0.20,0736_nse_dnn_0.20_boat_10_n02951358_715.JPEG
vgg,1,737,NaN,boat,boat,0.20,0737_nse_dnn_0.20_boat_10_n02951358_7089.JPEG
vgg,1,738,NaN,dog,boat,0.20,0738_nse_dnn_0.20_boat_10_n04612504_19999.JPEG
vgg,1,739,NaN,bottle,boat,0.20,0739_nse_dnn_0.20_boat_10_n04273569_6150.JPEG
vgg,1,740,NaN,clock,boat,0.20,0740_nse_dnn_0.20_boat_10_n04273569_11346.JPEG
vgg,1,741,NaN,dog,cat,0.20,0741_nse_dnn_0.20_cat_10_n02125311_1542.JPEG
vgg,1,742,NaN,clock,cat,0.20,0742_nse_dnn_0.20_cat_10_n02125311_34986.JPEG
vgg,1,743,NaN,dog,cat,0.20,0743_nse_dnn_0.20_cat_10_n02123045_2607.JPEG
vgg,1,744,NaN,dog,cat,0.20,0744_nse_dnn_0.20_cat_10_n02123159_4919.JPEG
vgg,1,745,NaN,dog,cat,0.20,0745_nse_dnn_0.20_cat_10_n02124075_8382.JPEG
vgg,1,746,NaN,dog,cat,0.20,0746_nse_dnn_0.20_cat_10_n02123394_5861.JPEG
vgg,1,747,NaN,dog,cat,0.20,0747_nse_dnn_0.20_cat_10_n02123394_768.JPEG
vgg,1,748,NaN,dog,cat,0.20,0748_nse_dnn_0.20_cat_10_n02124075_2617.JPEG
vgg,1,749,NaN,dog,cat,0.20,0749_nse_dnn_0.20_cat_10_n02123597_7920.JPEG
vgg,1,750,NaN,dog,cat,0.20,0750_nse_dnn_0.20_cat_10_n02123394_7471.JPEG
vgg,1,751,NaN,dog,bottle,0.20,0751_nse_dnn_0.20_bottle_10_n03937543_5192.JPEG
vgg,1,752,NaN,dog,bottle,0.20,0752_nse_dnn_0.20_bottle_10_n04560804_15903.JPEG
vgg,1,753,NaN,clock,bottle,0.20,0753_nse_dnn_0.20_bottle_10_n04591713_5635.JPEG
vgg,1,754,NaN,dog,bottle,0.20,0754_nse_dnn_0.20_bottle_10_n04557648_834.JPEG
vgg,1,755,NaN,clock,bottle,0.20,0755_nse_dnn_0.20_bottle_10_n04579145_7460.JPEG
vgg,1,756,NaN,dog,bottle,0.20,0756_nse_dnn_0.20_bottle_10_n03983396_9662.JPEG
vgg,1,757,NaN,bird,bottle,0.20,0757_nse_dnn_0.20_bottle_10_n02823428_4691.JPEG
vgg,1,758,NaN,bottle,bottle,0.20,0758_nse_dnn_0.20_bottle_10_n02823428_3608.JPEG
vgg,1,759,NaN,bottle,bottle,0.20,0759_nse_dnn_0.20_bottle_10_n03937543_11673.JPEG
vgg,1,760,NaN,clock,bottle,0.20,0760_nse_dnn_0.20_bottle_10_n03937543_4437.JPEG
vgg,1,761,NaN,clock,truck,0.20,0761_nse_dnn_0.20_truck_10_n04467665_60109.JPEG
vgg,1,762,NaN,bird,truck,0.20,0762_nse_dnn_0.20_truck_10_n03417042_29855.JPEG
vgg,1,763,NaN,clock,truck,0.20,0763_nse_dnn_0.20_truck_10_n03417042_3277.JPEG
vgg,1,764,NaN,bottle,truck,0.20,0764_nse_dnn_0.20_truck_10_n03796401_13870.JPEG
vgg,1,765,NaN,clock,truck,0.20,0765_nse_dnn_0.20_truck_10_n03417042_8295.JPEG
vgg,1,766,NaN,bird,truck,0.20,0766_nse_dnn_0.20_truck_10_n04467665_3040.JPEG
vgg,1,767,NaN,clock,truck,0.20,0767_nse_dnn_0.20_truck_10_n03417042_17142.JPEG
vgg,1,768,NaN,bird,truck,0.20,0768_nse_dnn_0.20_truck_10_n03417042_1336.JPEG
vgg,1,769,NaN,clock,truck,0.20,0769_nse_dnn_0.20_truck_10_n03417042_3015.JPEG
vgg,1,770,NaN,dog,truck,0.20,0770_nse_dnn_0.20_truck_10_n03796401_3910.JPEG
vgg,1,771,NaN,clock,car,0.20,0771_nse_dnn_0.20_car_10_n04285008_7486.JPEG
vgg,1,772,NaN,dog,car,0.20,0772_nse_dnn_0.20_car_10_n04285008_810.JPEG
vgg,1,773,NaN,truck,car,0.20,0773_nse_dnn_0.20_car_10_n02814533_7283.JPEG
vgg,1,774,NaN,car,car,0.20,0774_nse_dnn_0.20_car_10_n03100240_1743.JPEG
vgg,1,775,NaN,dog,car,0.20,0775_nse_dnn_0.20_car_10_n02814533_37548.JPEG
vgg,1,776,NaN,truck,car,0.20,0776_nse_dnn_0.20_car_10_n02814533_18213.JPEG
vgg,1,777,NaN,clock,car,0.20,0777_nse_dnn_0.20_car_10_n02814533_89297.JPEG
vgg,1,778,NaN,dog,car,0.20,0778_nse_dnn_0.20_car_10_n04285008_17149.JPEG
vgg,1,779,NaN,clock,car,0.20,0779_nse_dnn_0.20_car_10_n03100240_6045.JPEG
vgg,1,780,NaN,dog,car,0.20,0780_nse_dnn_0.20_car_10_n02814533_27484.JPEG
vgg,1,781,NaN,clock,bird,0.20,0781_nse_dnn_0.20_bird_10_n02017213_7613.JPEG
vgg,1,782,NaN,dog,bird,0.20,0782_nse_dnn_0.20_bird_10_n01797886_9385.JPEG
vgg,1,783,NaN,dog,bird,0.20,0783_nse_dnn_0.20_bird_10_n02051845_5506.JPEG
vgg,1,784,NaN,dog,bird,0.20,0784_nse_dnn_0.20_bird_10_n01828970_8910.JPEG
vgg,1,785,NaN,dog,bird,0.20,0785_nse_dnn_0.20_bird_10_n02056570_184.JPEG
vgg,1,786,NaN,dog,bird,0.20,0786_nse_dnn_0.20_bird_10_n01592084_8716.JPEG
vgg,1,787,NaN,bird,bird,0.20,0787_nse_dnn_0.20_bird_10_n01601694_17665.JPEG
vgg,1,788,NaN,dog,bird,0.20,0788_nse_dnn_0.20_bird_10_n01795545_1804.JPEG
vgg,1,789,NaN,dog,bird,0.20,0789_nse_dnn_0.20_bird_10_n01820546_2584.JPEG
vgg,1,790,NaN,dog,bird,0.20,0790_nse_dnn_0.20_bird_10_n01819313_3086.JPEG
vgg,1,791,NaN,bottle,dog,0.20,0791_nse_dnn_0.20_dog_10_n02093256_5362.JPEG
vgg,1,792,NaN,dog,dog,0.20,0792_nse_dnn_0.20_dog_10_n02111277_13845.JPEG
vgg,1,793,NaN,dog,dog,0.20,0793_nse_dnn_0.20_dog_10_n02109525_60241.JPEG
vgg,1,794,NaN,clock,dog,0.20,0794_nse_dnn_0.20_dog_10_n02086079_38255.JPEG
vgg,1,795,NaN,boat,dog,0.20,0795_nse_dnn_0.20_dog_10_n02110185_7800.JPEG
vgg,1,796,NaN,dog,dog,0.20,0796_nse_dnn_0.20_dog_10_n02096051_8182.JPEG
vgg,1,797,NaN,dog,dog,0.20,0797_nse_dnn_0.20_dog_10_n02096585_3106.JPEG
vgg,1,798,NaN,dog,dog,0.20,0798_nse_dnn_0.20_dog_10_n02097209_46.JPEG
vgg,1,799,NaN,cat,dog,0.20,0799_nse_dnn_0.20_dog_10_n02110806_4107.JPEG
vgg,1,800,NaN,dog,dog,0.20,0800_nse_dnn_0.20_dog_10_n02105162_2589.JPEG
vgg,1,801,NaN,dog,knife,0.35,0801_nse_dnn_0.35_knife_10_n03041632_22286.JPEG
vgg,1,802,NaN,dog,knife,0.35,0802_nse_dnn_0.35_knife_10_n03041632_36235.JPEG
vgg,1,803,NaN,bottle,knife,0.35,0803_nse_dnn_0.35_knife_10_n03041632_36814.JPEG
vgg,1,804,NaN,dog,knife,0.35,0804_nse_dnn_0.35_knife_10_n03041632_24817.JPEG
vgg,1,805,NaN,dog,knife,0.35,0805_nse_dnn_0.35_knife_10_n03041632_11475.JPEG
vgg,1,806,NaN,dog,knife,0.35,0806_nse_dnn_0.35_knife_10_n03041632_18236.JPEG
vgg,1,807,NaN,dog,knife,0.35,0807_nse_dnn_0.35_knife_10_n03041632_21165.JPEG
vgg,1,808,NaN,bottle,knife,0.35,0808_nse_dnn_0.35_knife_10_n03041632_927.JPEG
vgg,1,809,NaN,dog,knife,0.35,0809_nse_dnn_0.35_knife_10_n03041632_2644.JPEG
vgg,1,810,NaN,dog,knife,0.35,0810_nse_dnn_0.35_knife_10_n03041632_22738.JPEG
vgg,1,811,NaN,dog,keyboard,0.35,0811_nse_dnn_0.35_keyboard_10_n04505470_5175.JPEG
vgg,1,812,NaN,dog,keyboard,0.35,0812_nse_dnn_0.35_keyboard_10_n04505470_9866.JPEG
vgg,1,813,NaN,dog,keyboard,0.35,0813_nse_dnn_0.35_keyboard_10_n03085013_24078.JPEG
vgg,1,814,NaN,cat,keyboard,0.35,0814_nse_dnn_0.35_keyboard_10_n03085013_24087.JPEG
vgg,1,815,NaN,bird,keyboard,0.35,0815_nse_dnn_0.35_keyboard_10_n03085013_2064.JPEG
vgg,1,816,NaN,bottle,keyboard,0.35,0816_nse_dnn_0.35_keyboard_10_n03085013_7536.JPEG
vgg,1,817,NaN,dog,keyboard,0.35,0817_nse_dnn_0.35_keyboard_10_n03085013_21441.JPEG
vgg,1,818,NaN,dog,keyboard,0.35,0818_nse_dnn_0.35_keyboard_10_n03085013_7752.JPEG
vgg,1,819,NaN,cat,keyboard,0.35,0819_nse_dnn_0.35_keyboard_10_n04505470_2805.JPEG
vgg,1,820,NaN,dog,keyboard,0.35,0820_nse_dnn_0.35_keyboard_10_n03085013_24462.JPEG
vgg,1,821,NaN,dog,elephant,0.35,0821_nse_dnn_0.35_elephant_10_n02504458_690.JPEG
vgg,1,822,NaN,dog,elephant,0.35,0822_nse_dnn_0.35_elephant_10_n02504013_7633.JPEG
vgg,1,823,NaN,dog,elephant,0.35,0823_nse_dnn_0.35_elephant_10_n02504458_5029.JPEG
vgg,1,824,NaN,bottle,elephant,0.35,0824_nse_dnn_0.35_elephant_10_n02504458_1614.JPEG
vgg,1,825,NaN,clock,elephant,0.35,0825_nse_dnn_0.35_elephant_10_n02504458_4939.JPEG
vgg,1,826,NaN,dog,elephant,0.35,0826_nse_dnn_0.35_elephant_10_n02504458_10100.JPEG
vgg,1,827,NaN,dog,elephant,0.35,0827_nse_dnn_0.35_elephant_10_n02504458_5333.JPEG
vgg,1,828,NaN,dog,elephant,0.35,0828_nse_dnn_0.35_elephant_10_n02504458_8197.JPEG
vgg,1,829,NaN,dog,elephant,0.35,0829_nse_dnn_0.35_elephant_10_n02504013_2163.JPEG
vgg,1,830,NaN,bottle,elephant,0.35,0830_nse_dnn_0.35_elephant_10_n02504458_5470.JPEG
vgg,1,831,NaN,dog,bicycle,0.35,0831_nse_dnn_0.35_bicycle_10_n03792782_15589.JPEG
vgg,1,832,NaN,bottle,bicycle,0.35,0832_nse_dnn_0.35_bicycle_10_n03792782_3334.JPEG
vgg,1,833,NaN,dog,bicycle,0.35,0833_nse_dnn_0.35_bicycle_10_n03792782_3253.JPEG
vgg,1,834,NaN,dog,bicycle,0.35,0834_nse_dnn_0.35_bicycle_10_n02835271_5705.JPEG
vgg,1,835,NaN,bottle,bicycle,0.35,0835_nse_dnn_0.35_bicycle_10_n03792782_374.JPEG
vgg,1,836,NaN,dog,bicycle,0.35,0836_nse_dnn_0.35_bicycle_10_n03792782_6048.JPEG
vgg,1,837,NaN,bottle,bicycle,0.35,0837_nse_dnn_0.35_bicycle_10_n02835271_13072.JPEG
vgg,1,838,NaN,bottle,bicycle,0.35,0838_nse_dnn_0.35_bicycle_10_n02835271_9237.JPEG
vgg,1,839,NaN,bird,bicycle,0.35,0839_nse_dnn_0.35_bicycle_10_n03792782_3060.JPEG
vgg,1,840,NaN,bottle,bicycle,0.35,0840_nse_dnn_0.35_bicycle_10_n03792782_9183.JPEG
vgg,1,841,NaN,bird,airplane,0.35,0841_nse_dnn_0.35_airplane_10_n02690373_5967.JPEG
vgg,1,842,NaN,dog,airplane,0.35,0842_nse_dnn_0.35_airplane_10_n02690373_9266.JPEG
vgg,1,843,NaN,dog,airplane,0.35,0843_nse_dnn_0.35_airplane_10_n02690373_20090.JPEG
vgg,1,844,NaN,bird,airplane,0.35,0844_nse_dnn_0.35_airplane_10_n02690373_2882.JPEG
vgg,1,845,NaN,bird,airplane,0.35,0845_nse_dnn_0.35_airplane_10_n02690373_2130.JPEG
vgg,1,846,NaN,dog,airplane,0.35,0846_nse_dnn_0.35_airplane_10_n02690373_8711.JPEG
vgg,1,847,NaN,bird,airplane,0.35,0847_nse_dnn_0.35_airplane_10_n02690373_4358.JPEG
vgg,1,848,NaN,bird,airplane,0.35,0848_nse_dnn_0.35_airplane_10_n02690373_1952.JPEG
vgg,1,849,NaN,dog,airplane,0.35,0849_nse_dnn_0.35_airplane_10_n02690373_2837.JPEG
vgg,1,850,NaN,dog,airplane,0.35,0850_nse_dnn_0.35_airplane_10_n02690373_10051.JPEG
vgg,1,851,NaN,clock,clock,0.35,0851_nse_dnn_0.35_clock_10_n02708093_6799.JPEG
vgg,1,852,NaN,dog,clock,0.35,0852_nse_dnn_0.35_clock_10_n02708093_2062.JPEG
vgg,1,853,NaN,cat,clock,0.35,0853_nse_dnn_0.35_clock_10_n04548280_21343.JPEG
vgg,1,854,NaN,clock,clock,0.35,0854_nse_dnn_0.35_clock_10_n04548280_4713.JPEG
vgg,1,855,NaN,dog,clock,0.35,0855_nse_dnn_0.35_clock_10_n02708093_623.JPEG
vgg,1,856,NaN,dog,clock,0.35,0856_nse_dnn_0.35_clock_10_n04548280_8162.JPEG
vgg,1,857,NaN,cat,clock,0.35,0857_nse_dnn_0.35_clock_10_n02708093_3598.JPEG
vgg,1,858,NaN,bottle,clock,0.35,0858_nse_dnn_0.35_clock_10_n04548280_1199.JPEG
vgg,1,859,NaN,bird,clock,0.35,0859_nse_dnn_0.35_clock_10_n03196217_8614.JPEG
vgg,1,860,NaN,dog,clock,0.35,0860_nse_dnn_0.35_clock_10_n03196217_11724.JPEG
vgg,1,861,NaN,dog,oven,0.35,0861_nse_dnn_0.35_oven_10_n04111531_8984.JPEG
vgg,1,862,NaN,bottle,oven,0.35,0862_nse_dnn_0.35_oven_10_n04111531_15087.JPEG
vgg,1,863,NaN,dog,oven,0.35,0863_nse_dnn_0.35_oven_10_n04111531_11079.JPEG
vgg,1,864,NaN,clock,oven,0.35,0864_nse_dnn_0.35_oven_10_n04111531_9548.JPEG
vgg,1,865,NaN,dog,oven,0.35,0865_nse_dnn_0.35_oven_10_n04111531_8441.JPEG
vgg,1,866,NaN,dog,oven,0.35,0866_nse_dnn_0.35_oven_10_n04111531_6783.JPEG
vgg,1,867,NaN,cat,oven,0.35,0867_nse_dnn_0.35_oven_10_n04111531_3973.JPEG
vgg,1,868,NaN,dog,oven,0.35,0868_nse_dnn_0.35_oven_10_n04111531_1391.JPEG
vgg,1,869,NaN,dog,oven,0.35,0869_nse_dnn_0.35_oven_10_n04111531_2462.JPEG
vgg,1,870,NaN,cat,oven,0.35,0870_nse_dnn_0.35_oven_10_n04111531_2721.JPEG
vgg,1,871,NaN,cat,chair,0.35,0871_nse_dnn_0.35_chair_10_n04099969_4100.JPEG
vgg,1,872,NaN,bottle,chair,0.35,0872_nse_dnn_0.35_chair_10_n03376595_3793.JPEG
vgg,1,873,NaN,bottle,chair,0.35,0873_nse_dnn_0.35_chair_10_n03376595_2165.JPEG
vgg,1,874,NaN,dog,chair,0.35,0874_nse_dnn_0.35_chair_10_n03376595_5074.JPEG
vgg,1,875,NaN,bird,chair,0.35,0875_nse_dnn_0.35_chair_10_n04429376_39754.JPEG
vgg,1,876,NaN,cat,chair,0.35,0876_nse_dnn_0.35_chair_10_n04099969_13657.JPEG
vgg,1,877,NaN,bottle,chair,0.35,0877_nse_dnn_0.35_chair_10_n04099969_10966.JPEG
vgg,1,878,NaN,dog,chair,0.35,0878_nse_dnn_0.35_chair_10_n04099969_22160.JPEG
vgg,1,879,NaN,dog,chair,0.35,0879_nse_dnn_0.35_chair_10_n02791124_16144.JPEG
vgg,1,880,NaN,dog,chair,0.35,0880_nse_dnn_0.35_chair_10_n04099969_14028.JPEG
vgg,1,881,NaN,dog,bear,0.35,0881_nse_dnn_0.35_bear_10_n02132136_4191.JPEG
vgg,1,882,NaN,dog,bear,0.35,0882_nse_dnn_0.35_bear_10_n02132136_14385.JPEG
vgg,1,883,NaN,dog,bear,0.35,0883_nse_dnn_0.35_bear_10_n02134084_7387.JPEG
vgg,1,884,NaN,dog,bear,0.35,0884_nse_dnn_0.35_bear_10_n02134418_651.JPEG
vgg,1,885,NaN,cat,bear,0.35,0885_nse_dnn_0.35_bear_10_n02134418_107.JPEG
vgg,1,886,NaN,dog,bear,0.35,0886_nse_dnn_0.35_bear_10_n02134418_4076.JPEG
vgg,1,887,NaN,dog,bear,0.35,0887_nse_dnn_0.35_bear_10_n02132136_24194.JPEG
vgg,1,888,NaN,bird,bear,0.35,0888_nse_dnn_0.35_bear_10_n02134418_3382.JPEG
vgg,1,889,NaN,dog,bear,0.35,0889_nse_dnn_0.35_bear_10_n02132136_6432.JPEG
vgg,1,890,NaN,dog,bear,0.35,0890_nse_dnn_0.35_bear_10_n02134084_9176.JPEG
vgg,1,891,NaN,dog,boat,0.35,0891_nse_dnn_0.35_boat_10_n04273569_14262.JPEG
vgg,1,892,NaN,bottle,boat,0.35,0892_nse_dnn_0.35_boat_10_n04273569_1234.JPEG
vgg,1,893,NaN,dog,boat,0.35,0893_nse_dnn_0.35_boat_10_n04612504_1882.JPEG
vgg,1,894,NaN,dog,boat,0.35,0894_nse_dnn_0.35_boat_10_n03662601_3011.JPEG
vgg,1,895,NaN,dog,boat,0.35,0895_nse_dnn_0.35_boat_10_n04273569_9118.JPEG
vgg,1,896,NaN,bird,boat,0.35,0896_nse_dnn_0.35_boat_10_n03344393_4524.JPEG
vgg,1,897,NaN,bird,boat,0.35,0897_nse_dnn_0.35_boat_10_n04273569_23705.JPEG
vgg,1,898,NaN,bird,boat,0.35,0898_nse_dnn_0.35_boat_10_n03344393_4265.JPEG
vgg,1,899,NaN,bird,boat,0.35,0899_nse_dnn_0.35_boat_10_n03344393_1769.JPEG
vgg,1,900,NaN,dog,boat,0.35,0900_nse_dnn_0.35_boat_10_n03662601_21426.JPEG
vgg,1,901,NaN,dog,cat,0.35,0901_nse_dnn_0.35_cat_10_n02123394_2545.JPEG
vgg,1,902,NaN,dog,cat,0.35,0902_nse_dnn_0.35_cat_10_n02123597_11529.JPEG
vgg,1,903,NaN,dog,cat,0.35,0903_nse_dnn_0.35_cat_10_n02123159_3918.JPEG
vgg,1,904,NaN,dog,cat,0.35,0904_nse_dnn_0.35_cat_10_n02123394_5042.JPEG
vgg,1,905,NaN,dog,cat,0.35,0905_nse_dnn_0.35_cat_10_n02123159_7489.JPEG
vgg,1,906,NaN,bird,cat,0.35,0906_nse_dnn_0.35_cat_10_n02124075_11203.JPEG
vgg,1,907,NaN,dog,cat,0.35,0907_nse_dnn_0.35_cat_10_n02123597_9134.JPEG
vgg,1,908,NaN,bottle,cat,0.35,0908_nse_dnn_0.35_cat_10_n02123045_5010.JPEG
vgg,1,909,NaN,dog,cat,0.35,0909_nse_dnn_0.35_cat_10_n02123394_884.JPEG
vgg,1,910,NaN,dog,cat,0.35,0910_nse_dnn_0.35_cat_10_n02123394_1860.JPEG
vgg,1,911,NaN,bottle,bottle,0.35,0911_nse_dnn_0.35_bottle_10_n03983396_11496.JPEG
vgg,1,912,NaN,dog,bottle,0.35,0912_nse_dnn_0.35_bottle_10_n02823428_5064.JPEG
vgg,1,913,NaN,dog,bottle,0.35,0913_nse_dnn_0.35_bottle_10_n04591713_1744.JPEG
vgg,1,914,NaN,bottle,bottle,0.35,0914_nse_dnn_0.35_bottle_10_n03983396_9794.JPEG
vgg,1,915,NaN,cat,bottle,0.35,0915_nse_dnn_0.35_bottle_10_n04591713_5188.JPEG
vgg,1,916,NaN,dog,bottle,0.35,0916_nse_dnn_0.35_bottle_10_n04560804_2501.JPEG
vgg,1,917,NaN,dog,bottle,0.35,0917_nse_dnn_0.35_bottle_10_n04591713_261.JPEG
vgg,1,918,NaN,bottle,bottle,0.35,0918_nse_dnn_0.35_bottle_10_n04579145_1049.JPEG
vgg,1,919,NaN,bird,bottle,0.35,0919_nse_dnn_0.35_bottle_10_n04591713_3069.JPEG
vgg,1,920,NaN,dog,bottle,0.35,0920_nse_dnn_0.35_bottle_10_n04591713_7453.JPEG
vgg,1,921,NaN,bird,truck,0.35,0921_nse_dnn_0.35_truck_10_n03417042_7588.JPEG
vgg,1,922,NaN,bird,truck,0.35,0922_nse_dnn_0.35_truck_10_n03417042_130.JPEG
vgg,1,923,NaN,dog,truck,0.35,0923_nse_dnn_0.35_truck_10_n04467665_68841.JPEG
vgg,1,924,NaN,dog,truck,0.35,0924_nse_dnn_0.35_truck_10_n04467665_14707.JPEG
vgg,1,925,NaN,dog,truck,0.35,0925_nse_dnn_0.35_truck_10_n03417042_18615.JPEG
vgg,1,926,NaN,cat,truck,0.35,0926_nse_dnn_0.35_truck_10_n03417042_27907.JPEG
vgg,1,927,NaN,dog,truck,0.35,0927_nse_dnn_0.35_truck_10_n03796401_14490.JPEG
vgg,1,928,NaN,clock,truck,0.35,0928_nse_dnn_0.35_truck_10_n03796401_24385.JPEG
vgg,1,929,NaN,dog,truck,0.35,0929_nse_dnn_0.35_truck_10_n04467665_27928.JPEG
vgg,1,930,NaN,cat,truck,0.35,0930_nse_dnn_0.35_truck_10_n04467665_4054.JPEG
vgg,1,931,NaN,dog,car,0.35,0931_nse_dnn_0.35_car_10_n02814533_98315.JPEG
vgg,1,932,NaN,dog,car,0.35,0932_nse_dnn_0.35_car_10_n02814533_96791.JPEG
vgg,1,933,NaN,bird,car,0.35,0933_nse_dnn_0.35_car_10_n04285008_8700.JPEG
vgg,1,934,NaN,dog,car,0.35,0934_nse_dnn_0.35_car_10_n04285008_12438.JPEG
vgg,1,935,NaN,dog,car,0.35,0935_nse_dnn_0.35_car_10_n03100240_16939.JPEG
vgg,1,936,NaN,dog,car,0.35,0936_nse_dnn_0.35_car_10_n04285008_11931.JPEG
vgg,1,937,NaN,bird,car,0.35,0937_nse_dnn_0.35_car_10_n04285008_3805.JPEG
vgg,1,938,NaN,bottle,car,0.35,0938_nse_dnn_0.35_car_10_n03100240_4648.JPEG
vgg,1,939,NaN,dog,car,0.35,0939_nse_dnn_0.35_car_10_n04285008_6751.JPEG
vgg,1,940,NaN,dog,car,0.35,0940_nse_dnn_0.35_car_10_n03100240_16653.JPEG
vgg,1,941,NaN,dog,bird,0.35,0941_nse_dnn_0.35_bird_10_n01824575_10325.JPEG
vgg,1,942,NaN,dog,bird,0.35,0942_nse_dnn_0.35_bird_10_n01532829_5711.JPEG
vgg,1,943,NaN,dog,bird,0.35,0943_nse_dnn_0.35_bird_10_n02056570_8510.JPEG
vgg,1,944,NaN,dog,bird,0.35,0944_nse_dnn_0.35_bird_10_n01582220_8901.JPEG
vgg,1,945,NaN,dog,bird,0.35,0945_nse_dnn_0.35_bird_10_n02018207_43359.JPEG
vgg,1,946,NaN,dog,bird,0.35,0946_nse_dnn_0.35_bird_10_n01558993_155.JPEG
vgg,1,947,NaN,dog,bird,0.35,0947_nse_dnn_0.35_bird_10_n02013706_2385.JPEG
vgg,1,948,NaN,dog,bird,0.35,0948_nse_dnn_0.35_bird_10_n02013706_6768.JPEG
vgg,1,949,NaN,bird,bird,0.35,0949_nse_dnn_0.35_bird_10_n02018207_924.JPEG
vgg,1,950,NaN,dog,bird,0.35,0950_nse_dnn_0.35_bird_10_n01616318_3026.JPEG
vgg,1,951,NaN,dog,dog,0.35,0951_nse_dnn_0.35_dog_10_n02100583_1643.JPEG
vgg,1,952,NaN,dog,dog,0.35,0952_nse_dnn_0.35_dog_10_n02106030_13992.JPEG
vgg,1,953,NaN,dog,dog,0.35,0953_nse_dnn_0.35_dog_10_n02091134_643.JPEG
vgg,1,954,NaN,dog,dog,0.35,0954_nse_dnn_0.35_dog_10_n02110958_5340.JPEG
vgg,1,955,NaN,dog,dog,0.35,0955_nse_dnn_0.35_dog_10_n02113799_1808.JPEG
vgg,1,956,NaN,dog,dog,0.35,0956_nse_dnn_0.35_dog_10_n02096437_2055.JPEG
vgg,1,957,NaN,dog,dog,0.35,0957_nse_dnn_0.35_dog_10_n02091467_11529.JPEG
vgg,1,958,NaN,dog,dog,0.35,0958_nse_dnn_0.35_dog_10_n02091134_4689.JPEG
vgg,1,959,NaN,bottle,dog,0.35,0959_nse_dnn_0.35_dog_10_n02102480_4756.JPEG
vgg,1,960,NaN,dog,dog,0.35,0960_nse_dnn_0.35_dog_10_n02088466_6798.JPEG
vgg,1,961,NaN,dog,knife,0.60,0961_nse_dnn_0.60_knife_10_n03041632_50034.JPEG
vgg,1,962,NaN,dog,knife,0.60,0962_nse_dnn_0.60_knife_10_n03041632_6309.JPEG
vgg,1,963,NaN,dog,knife,0.60,0963_nse_dnn_0.60_knife_10_n03041632_31909.JPEG
vgg,1,964,NaN,dog,knife,0.60,0964_nse_dnn_0.60_knife_10_n03041632_4214.JPEG
vgg,1,965,NaN,dog,knife,0.60,0965_nse_dnn_0.60_knife_10_n03041632_7707.JPEG
vgg,1,966,NaN,dog,knife,0.60,0966_nse_dnn_0.60_knife_10_n03041632_8540.JPEG
vgg,1,967,NaN,bird,knife,0.60,0967_nse_dnn_0.60_knife_10_n03041632_5302.JPEG
vgg,1,968,NaN,bottle,knife,0.60,0968_nse_dnn_0.60_knife_10_n03041632_13518.JPEG
vgg,1,969,NaN,dog,knife,0.60,0969_nse_dnn_0.60_knife_10_n03041632_91967.JPEG
vgg,1,970,NaN,dog,knife,0.60,0970_nse_dnn_0.60_knife_10_n03041632_22480.JPEG
vgg,1,971,NaN,bird,keyboard,0.60,0971_nse_dnn_0.60_keyboard_10_n04505470_2321.JPEG
vgg,1,972,NaN,dog,keyboard,0.60,0972_nse_dnn_0.60_keyboard_10_n04505470_5109.JPEG
vgg,1,973,NaN,dog,keyboard,0.60,0973_nse_dnn_0.60_keyboard_10_n04505470_1417.JPEG
vgg,1,974,NaN,bird,keyboard,0.60,0974_nse_dnn_0.60_keyboard_10_n03085013_233.JPEG
vgg,1,975,NaN,bird,keyboard,0.60,0975_nse_dnn_0.60_keyboard_10_n03085013_22960.JPEG
vgg,1,976,NaN,dog,keyboard,0.60,0976_nse_dnn_0.60_keyboard_10_n03085013_21399.JPEG
vgg,1,977,NaN,dog,keyboard,0.60,0977_nse_dnn_0.60_keyboard_10_n04505470_1358.JPEG
vgg,1,978,NaN,bird,keyboard,0.60,0978_nse_dnn_0.60_keyboard_10_n04505470_10264.JPEG
vgg,1,979,NaN,dog,keyboard,0.60,0979_nse_dnn_0.60_keyboard_10_n03085013_20584.JPEG
vgg,1,980,NaN,dog,keyboard,0.60,0980_nse_dnn_0.60_keyboard_10_n04505470_5137.JPEG
vgg,1,981,NaN,bottle,elephant,0.60,0981_nse_dnn_0.60_elephant_10_n02504013_8815.JPEG
vgg,1,982,NaN,dog,elephant,0.60,0982_nse_dnn_0.60_elephant_10_n02504013_6112.JPEG
vgg,1,983,NaN,dog,elephant,0.60,0983_nse_dnn_0.60_elephant_10_n02504013_1455.JPEG
vgg,1,984,NaN,dog,elephant,0.60,0984_nse_dnn_0.60_elephant_10_n02504458_4137.JPEG
vgg,1,985,NaN,dog,elephant,0.60,0985_nse_dnn_0.60_elephant_10_n02504013_5533.JPEG
vgg,1,986,NaN,dog,elephant,0.60,0986_nse_dnn_0.60_elephant_10_n02504458_4316.JPEG
vgg,1,987,NaN,dog,elephant,0.60,0987_nse_dnn_0.60_elephant_10_n02504013_410.JPEG
vgg,1,988,NaN,dog,elephant,0.60,0988_nse_dnn_0.60_elephant_10_n02504458_5444.JPEG
vgg,1,989,NaN,bird,elephant,0.60,0989_nse_dnn_0.60_elephant_10_n02504458_3629.JPEG
vgg,1,990,NaN,dog,elephant,0.60,0990_nse_dnn_0.60_elephant_10_n02504013_10887.JPEG
vgg,1,991,NaN,bird,bicycle,0.60,0991_nse_dnn_0.60_bicycle_10_n02835271_11915.JPEG
vgg,1,992,NaN,bird,bicycle,0.60,0992_nse_dnn_0.60_bicycle_10_n03792782_12908.JPEG
vgg,1,993,NaN,bird,bicycle,0.60,0993_nse_dnn_0.60_bicycle_10_n03792782_5758.JPEG
vgg,1,994,NaN,dog,bicycle,0.60,0994_nse_dnn_0.60_bicycle_10_n03792782_10312.JPEG
vgg,1,995,NaN,dog,bicycle,0.60,0995_nse_dnn_0.60_bicycle_10_n03792782_30962.JPEG
vgg,1,996,NaN,bottle,bicycle,0.60,0996_nse_dnn_0.60_bicycle_10_n02835271_8563.JPEG
vgg,1,997,NaN,bottle,bicycle,0.60,0997_nse_dnn_0.60_bicycle_10_n02835271_19557.JPEG
vgg,1,998,NaN,dog,bicycle,0.60,0998_nse_dnn_0.60_bicycle_10_n02835271_719.JPEG
vgg,1,999,NaN,bottle,bicycle,0.60,0999_nse_dnn_0.60_bicycle_10_n02835271_13608.JPEG
vgg,1,1000,NaN,dog,bicycle,0.60,1000_nse_dnn_0.60_bicycle_10_n02835271_13793.JPEG
vgg,1,1001,NaN,bird,airplane,0.60,1001_nse_dnn_0.60_airplane_10_n02690373_4507.JPEG
vgg,1,1002,NaN,bird,airplane,0.60,1002_nse_dnn_0.60_airplane_10_n02690373_10176.JPEG
vgg,1,1003,NaN,bottle,airplane,0.60,1003_nse_dnn_0.60_airplane_10_n02690373_9423.JPEG
vgg,1,1004,NaN,bird,airplane,0.60,1004_nse_dnn_0.60_airplane_10_n02690373_4150.JPEG
vgg,1,1005,NaN,bird,airplane,0.60,1005_nse_dnn_0.60_airplane_10_n02690373_6046.JPEG
vgg,1,1006,NaN,bird,airplane,0.60,1006_nse_dnn_0.60_airplane_10_n02690373_1972.JPEG
vgg,1,1007,NaN,dog,airplane,0.60,1007_nse_dnn_0.60_airplane_10_n02690373_1563.JPEG
vgg,1,1008,NaN,dog,airplane,0.60,1008_nse_dnn_0.60_airplane_10_n02690373_194.JPEG
vgg,1,1009,NaN,dog,airplane,0.60,1009_nse_dnn_0.60_airplane_10_n02690373_817.JPEG
vgg,1,1010,NaN,dog,airplane,0.60,1010_nse_dnn_0.60_airplane_10_n02690373_3269.JPEG
vgg,1,1011,NaN,bird,clock,0.60,1011_nse_dnn_0.60_clock_10_n02708093_2710.JPEG
vgg,1,1012,NaN,bottle,clock,0.60,1012_nse_dnn_0.60_clock_10_n02708093_8340.JPEG
vgg,1,1013,NaN,bottle,clock,0.60,1013_nse_dnn_0.60_clock_10_n02708093_1276.JPEG
vgg,1,1014,NaN,dog,clock,0.60,1014_nse_dnn_0.60_clock_10_n03196217_6217.JPEG
vgg,1,1015,NaN,dog,clock,0.60,1015_nse_dnn_0.60_clock_10_n04548280_3295.JPEG
vgg,1,1016,NaN,dog,clock,0.60,1016_nse_dnn_0.60_clock_10_n04548280_82.JPEG
vgg,1,1017,NaN,bird,clock,0.60,1017_nse_dnn_0.60_clock_10_n03196217_1024.JPEG
vgg,1,1018,NaN,dog,clock,0.60,1018_nse_dnn_0.60_clock_10_n03196217_2488.JPEG
vgg,1,1019,NaN,bottle,clock,0.60,1019_nse_dnn_0.60_clock_10_n04548280_4042.JPEG
vgg,1,1020,NaN,bottle,clock,0.60,1020_nse_dnn_0.60_clock_10_n03196217_7324.JPEG
vgg,1,1021,NaN,dog,oven,0.60,1021_nse_dnn_0.60_oven_10_n04111531_2715.JPEG
vgg,1,1022,NaN,dog,oven,0.60,1022_nse_dnn_0.60_oven_10_n04111531_11589.JPEG
vgg,1,1023,NaN,bird,oven,0.60,1023_nse_dnn_0.60_oven_10_n04111531_20099.JPEG
vgg,1,1024,NaN,dog,oven,0.60,1024_nse_dnn_0.60_oven_10_n04111531_7878.JPEG
vgg,1,1025,NaN,bird,oven,0.60,1025_nse_dnn_0.60_oven_10_n04111531_7340.JPEG
vgg,1,1026,NaN,dog,oven,0.60,1026_nse_dnn_0.60_oven_10_n04111531_5888.JPEG
vgg,1,1027,NaN,dog,oven,0.60,1027_nse_dnn_0.60_oven_10_n04111531_8255.JPEG
vgg,1,1028,NaN,dog,oven,0.60,1028_nse_dnn_0.60_oven_10_n04111531_8290.JPEG
vgg,1,1029,NaN,bottle,oven,0.60,1029_nse_dnn_0.60_oven_10_n04111531_9490.JPEG
vgg,1,1030,NaN,bottle,oven,0.60,1030_nse_dnn_0.60_oven_10_n04111531_9174.JPEG
vgg,1,1031,NaN,dog,chair,0.60,1031_nse_dnn_0.60_chair_10_n03376595_14464.JPEG
vgg,1,1032,NaN,dog,chair,0.60,1032_nse_dnn_0.60_chair_10_n02791124_146.JPEG
vgg,1,1033,NaN,dog,chair,0.60,1033_nse_dnn_0.60_chair_10_n04429376_15198.JPEG
vgg,1,1034,NaN,dog,chair,0.60,1034_nse_dnn_0.60_chair_10_n04099969_4825.JPEG
vgg,1,1035,NaN,dog,chair,0.60,1035_nse_dnn_0.60_chair_10_n02791124_7942.JPEG
vgg,1,1036,NaN,bottle,chair,0.60,1036_nse_dnn_0.60_chair_10_n04099969_25727.JPEG
vgg,1,1037,NaN,bottle,chair,0.60,1037_nse_dnn_0.60_chair_10_n04429376_49840.JPEG
vgg,1,1038,NaN,bottle,chair,0.60,1038_nse_dnn_0.60_chair_10_n04099969_32019.JPEG
vgg,1,1039,NaN,dog,chair,0.60,1039_nse_dnn_0.60_chair_10_n02791124_2804.JPEG
vgg,1,1040,NaN,bottle,chair,0.60,1040_nse_dnn_0.60_chair_10_n04429376_20220.JPEG
vgg,1,1041,NaN,dog,bear,0.60,1041_nse_dnn_0.60_bear_10_n02133161_5201.JPEG
vgg,1,1042,NaN,bottle,bear,0.60,1042_nse_dnn_0.60_bear_10_n02134084_6223.JPEG
vgg,1,1043,NaN,bird,bear,0.60,1043_nse_dnn_0.60_bear_10_n02133161_10978.JPEG
vgg,1,1044,NaN,bottle,bear,0.60,1044_nse_dnn_0.60_bear_10_n02134084_12841.JPEG
vgg,1,1045,NaN,bird,bear,0.60,1045_nse_dnn_0.60_bear_10_n02133161_959.JPEG
vgg,1,1046,NaN,dog,bear,0.60,1046_nse_dnn_0.60_bear_10_n02134084_7675.JPEG
vgg,1,1047,NaN,dog,bear,0.60,1047_nse_dnn_0.60_bear_10_n02133161_1391.JPEG
vgg,1,1048,NaN,bird,bear,0.60,1048_nse_dnn_0.60_bear_10_n02134418_6161.JPEG
vgg,1,1049,NaN,dog,bear,0.60,1049_nse_dnn_0.60_bear_10_n02132136_8286.JPEG
vgg,1,1050,NaN,bird,bear,0.60,1050_nse_dnn_0.60_bear_10_n02133161_2928.JPEG
vgg,1,1051,NaN,dog,boat,0.60,1051_nse_dnn_0.60_boat_10_n02951358_32558.JPEG
vgg,1,1052,NaN,dog,boat,0.60,1052_nse_dnn_0.60_boat_10_n03344393_3024.JPEG
vgg,1,1053,NaN,dog,boat,0.60,1053_nse_dnn_0.60_boat_10_n03662601_6625.JPEG
vgg,1,1054,NaN,dog,boat,0.60,1054_nse_dnn_0.60_boat_10_n03662601_23731.JPEG
vgg,1,1055,NaN,bird,boat,0.60,1055_nse_dnn_0.60_boat_10_n02951358_16135.JPEG
vgg,1,1056,NaN,bird,boat,0.60,1056_nse_dnn_0.60_boat_10_n03344393_7374.JPEG
vgg,1,1057,NaN,bird,boat,0.60,1057_nse_dnn_0.60_boat_10_n04273569_16058.JPEG
vgg,1,1058,NaN,dog,boat,0.60,1058_nse_dnn_0.60_boat_10_n03662601_16577.JPEG
vgg,1,1059,NaN,bird,boat,0.60,1059_nse_dnn_0.60_boat_10_n03344393_8941.JPEG
vgg,1,1060,NaN,dog,boat,0.60,1060_nse_dnn_0.60_boat_10_n03662601_5223.JPEG
vgg,1,1061,NaN,dog,cat,0.60,1061_nse_dnn_0.60_cat_10_n02124075_8496.JPEG
vgg,1,1062,NaN,dog,cat,0.60,1062_nse_dnn_0.60_cat_10_n02124075_10034.JPEG
vgg,1,1063,NaN,dog,cat,0.60,1063_nse_dnn_0.60_cat_10_n02124075_556.JPEG
vgg,1,1064,NaN,dog,cat,0.60,1064_nse_dnn_0.60_cat_10_n02123394_4712.JPEG
vgg,1,1065,NaN,dog,cat,0.60,1065_nse_dnn_0.60_cat_10_n02123159_4650.JPEG
vgg,1,1066,NaN,dog,cat,0.60,1066_nse_dnn_0.60_cat_10_n02124075_13021.JPEG
vgg,1,1067,NaN,dog,cat,0.60,1067_nse_dnn_0.60_cat_10_n02123394_7390.JPEG
vgg,1,1068,NaN,dog,cat,0.60,1068_nse_dnn_0.60_cat_10_n02123597_32714.JPEG
vgg,1,1069,NaN,dog,cat,0.60,1069_nse_dnn_0.60_cat_10_n02125311_3007.JPEG
vgg,1,1070,NaN,bottle,cat,0.60,1070_nse_dnn_0.60_cat_10_n02123597_13519.JPEG
vgg,1,1071,NaN,bottle,bottle,0.60,1071_nse_dnn_0.60_bottle_10_n04591713_3583.JPEG
vgg,1,1072,NaN,bottle,bottle,0.60,1072_nse_dnn_0.60_bottle_10_n02823428_11353.JPEG
vgg,1,1073,NaN,bottle,bottle,0.60,1073_nse_dnn_0.60_bottle_10_n04557648_5344.JPEG
vgg,1,1074,NaN,bottle,bottle,0.60,1074_nse_dnn_0.60_bottle_10_n04591713_2140.JPEG
vgg,1,1075,NaN,dog,bottle,0.60,1075_nse_dnn_0.60_bottle_10_n04560804_33404.JPEG
vgg,1,1076,NaN,dog,bottle,0.60,1076_nse_dnn_0.60_bottle_10_n04557648_5690.JPEG
vgg,1,1077,NaN,dog,bottle,0.60,1077_nse_dnn_0.60_bottle_10_n04560804_13073.JPEG
vgg,1,1078,NaN,dog,bottle,0.60,1078_nse_dnn_0.60_bottle_10_n04560804_6395.JPEG
vgg,1,1079,NaN,bottle,bottle,0.60,1079_nse_dnn_0.60_bottle_10_n04557648_11070.JPEG
vgg,1,1080,NaN,bottle,bottle,0.60,1080_nse_dnn_0.60_bottle_10_n03937543_828.JPEG
vgg,1,1081,NaN,dog,truck,0.60,1081_nse_dnn_0.60_truck_10_n03796401_8293.JPEG
vgg,1,1082,NaN,dog,truck,0.60,1082_nse_dnn_0.60_truck_10_n03417042_2253.JPEG
vgg,1,1083,NaN,dog,truck,0.60,1083_nse_dnn_0.60_truck_10_n04467665_70784.JPEG
vgg,1,1084,NaN,bottle,truck,0.60,1084_nse_dnn_0.60_truck_10_n04467665_52595.JPEG
vgg,1,1085,NaN,dog,truck,0.60,1085_nse_dnn_0.60_truck_10_n03417042_3104.JPEG
vgg,1,1086,NaN,dog,truck,0.60,1086_nse_dnn_0.60_truck_10_n03417042_2150.JPEG
vgg,1,1087,NaN,dog,truck,0.60,1087_nse_dnn_0.60_truck_10_n04467665_13225.JPEG
vgg,1,1088,NaN,dog,truck,0.60,1088_nse_dnn_0.60_truck_10_n03417042_9152.JPEG
vgg,1,1089,NaN,bird,truck,0.60,1089_nse_dnn_0.60_truck_10_n04467665_15613.JPEG
vgg,1,1090,NaN,dog,truck,0.60,1090_nse_dnn_0.60_truck_10_n03417042_19481.JPEG
vgg,1,1091,NaN,dog,car,0.60,1091_nse_dnn_0.60_car_10_n04285008_4124.JPEG
vgg,1,1092,NaN,bird,car,0.60,1092_nse_dnn_0.60_car_10_n04285008_4059.JPEG
vgg,1,1093,NaN,bottle,car,0.60,1093_nse_dnn_0.60_car_10_n02814533_4403.JPEG
vgg,1,1094,NaN,dog,car,0.60,1094_nse_dnn_0.60_car_10_n02814533_43603.JPEG
vgg,1,1095,NaN,dog,car,0.60,1095_nse_dnn_0.60_car_10_n02814533_92353.JPEG
vgg,1,1096,NaN,bottle,car,0.60,1096_nse_dnn_0.60_car_10_n03100240_14794.JPEG
vgg,1,1097,NaN,dog,car,0.60,1097_nse_dnn_0.60_car_10_n02814533_1165.JPEG
vgg,1,1098,NaN,bird,car,0.60,1098_nse_dnn_0.60_car_10_n03100240_3267.JPEG
vgg,1,1099,NaN,dog,car,0.60,1099_nse_dnn_0.60_car_10_n03100240_9402.JPEG
vgg,1,1100,NaN,dog,car,0.60,1100_nse_dnn_0.60_car_10_n03100240_5719.JPEG
vgg,1,1101,NaN,bottle,bird,0.60,1101_nse_dnn_0.60_bird_10_n01534433_2162.JPEG
vgg,1,1102,NaN,dog,bird,0.60,1102_nse_dnn_0.60_bird_10_n01855032_2059.JPEG
vgg,1,1103,NaN,dog,bird,0.60,1103_nse_dnn_0.60_bird_10_n02051845_5370.JPEG
vgg,1,1104,NaN,bottle,bird,0.60,1104_nse_dnn_0.60_bird_10_n01797886_17186.JPEG
vgg,1,1105,NaN,dog,bird,0.60,1105_nse_dnn_0.60_bird_10_n02018795_4299.JPEG
vgg,1,1106,NaN,dog,bird,0.60,1106_nse_dnn_0.60_bird_10_n01796340_1549.JPEG
vgg,1,1107,NaN,dog,bird,0.60,1107_nse_dnn_0.60_bird_10_n01582220_703.JPEG
vgg,1,1108,NaN,bottle,bird,0.60,1108_nse_dnn_0.60_bird_10_n02037110_13954.JPEG
vgg,1,1109,NaN,bird,bird,0.60,1109_nse_dnn_0.60_bird_10_n02028035_9179.JPEG
vgg,1,1110,NaN,dog,bird,0.60,1110_nse_dnn_0.60_bird_10_n01537544_2328.JPEG
vgg,1,1111,NaN,dog,dog,0.60,1111_nse_dnn_0.60_dog_10_n02089973_183.JPEG
vgg,1,1112,NaN,bottle,dog,0.60,1112_nse_dnn_0.60_dog_10_n02113023_9080.JPEG
vgg,1,1113,NaN,dog,dog,0.60,1113_nse_dnn_0.60_dog_10_n02108000_63.JPEG
vgg,1,1114,NaN,dog,dog,0.60,1114_nse_dnn_0.60_dog_10_n02107683_6098.JPEG
vgg,1,1115,NaN,bird,dog,0.60,1115_nse_dnn_0.60_dog_10_n02100877_96.JPEG
vgg,1,1116,NaN,dog,dog,0.60,1116_nse_dnn_0.60_dog_10_n02109525_11747.JPEG
vgg,1,1117,NaN,dog,dog,0.60,1117_nse_dnn_0.60_dog_10_n02110806_23153.JPEG
vgg,1,1118,NaN,dog,dog,0.60,1118_nse_dnn_0.60_dog_10_n02093256_9269.JPEG
vgg,1,1119,NaN,bottle,dog,0.60,1119_nse_dnn_0.60_dog_10_n02113023_11525.JPEG
vgg,1,1120,NaN,bird,dog,0.60,1120_nse_dnn_0.60_dog_10_n02100583_19010.JPEG
vgg,1,1121,NaN,dog,knife,0.90,1121_nse_dnn_0.90_knife_10_n03041632_2184.JPEG
vgg,1,1122,NaN,bottle,knife,0.90,1122_nse_dnn_0.90_knife_10_n03041632_11700.JPEG
vgg,1,1123,NaN,dog,knife,0.90,1123_nse_dnn_0.90_knife_10_n03041632_25603.JPEG
vgg,1,1124,NaN,bottle,knife,0.90,1124_nse_dnn_0.90_knife_10_n03041632_27134.JPEG
vgg,1,1125,NaN,bird,knife,0.90,1125_nse_dnn_0.90_knife_10_n03041632_47703.JPEG
vgg,1,1126,NaN,dog,knife,0.90,1126_nse_dnn_0.90_knife_10_n03041632_25022.JPEG
vgg,1,1127,NaN,dog,knife,0.90,1127_nse_dnn_0.90_knife_10_n03041632_37536.JPEG
vgg,1,1128,NaN,dog,knife,0.90,1128_nse_dnn_0.90_knife_10_n03041632_3781.JPEG
vgg,1,1129,NaN,dog,knife,0.90,1129_nse_dnn_0.90_knife_10_n03041632_9302.JPEG
vgg,1,1130,NaN,dog,knife,0.90,1130_nse_dnn_0.90_knife_10_n03041632_31037.JPEG
vgg,1,1131,NaN,dog,keyboard,0.90,1131_nse_dnn_0.90_keyboard_10_n04505470_5111.JPEG
vgg,1,1132,NaN,bottle,keyboard,0.90,1132_nse_dnn_0.90_keyboard_10_n04505470_8749.JPEG
vgg,1,1133,NaN,bottle,keyboard,0.90,1133_nse_dnn_0.90_keyboard_10_n04505470_9741.JPEG
vgg,1,1134,NaN,bottle,keyboard,0.90,1134_nse_dnn_0.90_keyboard_10_n04505470_5070.JPEG
vgg,1,1135,NaN,bottle,keyboard,0.90,1135_nse_dnn_0.90_keyboard_10_n03085013_3920.JPEG
vgg,1,1136,NaN,bird,keyboard,0.90,1136_nse_dnn_0.90_keyboard_10_n03085013_24506.JPEG
vgg,1,1137,NaN,bird,keyboard,0.90,1137_nse_dnn_0.90_keyboard_10_n04505470_8524.JPEG
vgg,1,1138,NaN,bird,keyboard,0.90,1138_nse_dnn_0.90_keyboard_10_n03085013_23239.JPEG
vgg,1,1139,NaN,bottle,keyboard,0.90,1139_nse_dnn_0.90_keyboard_10_n03085013_21807.JPEG
vgg,1,1140,NaN,dog,keyboard,0.90,1140_nse_dnn_0.90_keyboard_10_n04505470_4615.JPEG
vgg,1,1141,NaN,dog,elephant,0.90,1141_nse_dnn_0.90_elephant_10_n02504458_1000.JPEG
vgg,1,1142,NaN,bird,elephant,0.90,1142_nse_dnn_0.90_elephant_10_n02504458_7013.JPEG
vgg,1,1143,NaN,bird,elephant,0.90,1143_nse_dnn_0.90_elephant_10_n02504013_26899.JPEG
vgg,1,1144,NaN,dog,elephant,0.90,1144_nse_dnn_0.90_elephant_10_n02504458_7238.JPEG
vgg,1,1145,NaN,dog,elephant,0.90,1145_nse_dnn_0.90_elephant_10_n02504013_1214.JPEG
vgg,1,1146,NaN,dog,elephant,0.90,1146_nse_dnn_0.90_elephant_10_n02504013_21877.JPEG
vgg,1,1147,NaN,dog,elephant,0.90,1147_nse_dnn_0.90_elephant_10_n02504013_3808.JPEG
vgg,1,1148,NaN,bottle,elephant,0.90,1148_nse_dnn_0.90_elephant_10_n02504013_13338.JPEG
vgg,1,1149,NaN,dog,elephant,0.90,1149_nse_dnn_0.90_elephant_10_n02504013_6462.JPEG
vgg,1,1150,NaN,dog,elephant,0.90,1150_nse_dnn_0.90_elephant_10_n02504013_6973.JPEG
vgg,1,1151,NaN,bottle,bicycle,0.90,1151_nse_dnn_0.90_bicycle_10_n03792782_1195.JPEG
vgg,1,1152,NaN,bottle,bicycle,0.90,1152_nse_dnn_0.90_bicycle_10_n02835271_1513.JPEG
vgg,1,1153,NaN,bottle,bicycle,0.90,1153_nse_dnn_0.90_bicycle_10_n03792782_17280.JPEG
vgg,1,1154,NaN,bottle,bicycle,0.90,1154_nse_dnn_0.90_bicycle_10_n03792782_3620.JPEG
vgg,1,1155,NaN,dog,bicycle,0.90,1155_nse_dnn_0.90_bicycle_10_n02835271_10669.JPEG
vgg,1,1156,NaN,bird,bicycle,0.90,1156_nse_dnn_0.90_bicycle_10_n03792782_5375.JPEG
vgg,1,1157,NaN,bottle,bicycle,0.90,1157_nse_dnn_0.90_bicycle_10_n03792782_5160.JPEG
vgg,1,1158,NaN,dog,bicycle,0.90,1158_nse_dnn_0.90_bicycle_10_n02835271_23680.JPEG
vgg,1,1159,NaN,bird,bicycle,0.90,1159_nse_dnn_0.90_bicycle_10_n02835271_22355.JPEG
vgg,1,1160,NaN,dog,bicycle,0.90,1160_nse_dnn_0.90_bicycle_10_n03792782_1755.JPEG
vgg,1,1161,NaN,bird,airplane,0.90,1161_nse_dnn_0.90_airplane_10_n02690373_2605.JPEG
vgg,1,1162,NaN,dog,airplane,0.90,1162_nse_dnn_0.90_airplane_10_n02690373_5266.JPEG
vgg,1,1163,NaN,bird,airplane,0.90,1163_nse_dnn_0.90_airplane_10_n02690373_4042.JPEG
vgg,1,1164,NaN,dog,airplane,0.90,1164_nse_dnn_0.90_airplane_10_n02690373_10311.JPEG
vgg,1,1165,NaN,dog,airplane,0.90,1165_nse_dnn_0.90_airplane_10_n02690373_4133.JPEG
vgg,1,1166,NaN,bottle,airplane,0.90,1166_nse_dnn_0.90_airplane_10_n02690373_7133.JPEG
vgg,1,1167,NaN,dog,airplane,0.90,1167_nse_dnn_0.90_airplane_10_n02690373_4945.JPEG
vgg,1,1168,NaN,bird,airplane,0.90,1168_nse_dnn_0.90_airplane_10_n02690373_7409.JPEG
vgg,1,1169,NaN,bird,airplane,0.90,1169_nse_dnn_0.90_airplane_10_n02690373_3054.JPEG
vgg,1,1170,NaN,bird,airplane,0.90,1170_nse_dnn_0.90_airplane_10_n02690373_4375.JPEG
vgg,1,1171,NaN,bird,clock,0.90,1171_nse_dnn_0.90_clock_10_n02708093_7998.JPEG
vgg,1,1172,NaN,dog,clock,0.90,1172_nse_dnn_0.90_clock_10_n02708093_3761.JPEG
vgg,1,1173,NaN,dog,clock,0.90,1173_nse_dnn_0.90_clock_10_n02708093_3484.JPEG
vgg,1,1174,NaN,dog,clock,0.90,1174_nse_dnn_0.90_clock_10_n02708093_6820.JPEG
vgg,1,1175,NaN,dog,clock,0.90,1175_nse_dnn_0.90_clock_10_n02708093_8121.JPEG
vgg,1,1176,NaN,dog,clock,0.90,1176_nse_dnn_0.90_clock_10_n02708093_3500.JPEG
vgg,1,1177,NaN,dog,clock,0.90,1177_nse_dnn_0.90_clock_10_n04548280_4907.JPEG
vgg,1,1178,NaN,bird,clock,0.90,1178_nse_dnn_0.90_clock_10_n04548280_3804.JPEG
vgg,1,1179,NaN,bottle,clock,0.90,1179_nse_dnn_0.90_clock_10_n03196217_8830.JPEG
vgg,1,1180,NaN,bottle,clock,0.90,1180_nse_dnn_0.90_clock_10_n03196217_5877.JPEG
vgg,1,1181,NaN,bird,oven,0.90,1181_nse_dnn_0.90_oven_10_n04111531_5218.JPEG
vgg,1,1182,NaN,dog,oven,0.90,1182_nse_dnn_0.90_oven_10_n04111531_2739.JPEG
vgg,1,1183,NaN,dog,oven,0.90,1183_nse_dnn_0.90_oven_10_n04111531_4250.JPEG
vgg,1,1184,NaN,dog,oven,0.90,1184_nse_dnn_0.90_oven_10_n04111531_4918.JPEG
vgg,1,1185,NaN,dog,oven,0.90,1185_nse_dnn_0.90_oven_10_n04111531_22715.JPEG
vgg,1,1186,NaN,bottle,oven,0.90,1186_nse_dnn_0.90_oven_10_n04111531_13644.JPEG
vgg,1,1187,NaN,bottle,oven,0.90,1187_nse_dnn_0.90_oven_10_n04111531_9342.JPEG
vgg,1,1188,NaN,dog,oven,0.90,1188_nse_dnn_0.90_oven_10_n04111531_22784.JPEG
vgg,1,1189,NaN,bottle,oven,0.90,1189_nse_dnn_0.90_oven_10_n04111531_6204.JPEG
vgg,1,1190,NaN,bottle,oven,0.90,1190_nse_dnn_0.90_oven_10_n04111531_13006.JPEG
vgg,1,1191,NaN,bottle,chair,0.90,1191_nse_dnn_0.90_chair_10_n02791124_4598.JPEG
vgg,1,1192,NaN,bottle,chair,0.90,1192_nse_dnn_0.90_chair_10_n03376595_3130.JPEG
vgg,1,1193,NaN,dog,chair,0.90,1193_nse_dnn_0.90_chair_10_n04429376_9121.JPEG
vgg,1,1194,NaN,dog,chair,0.90,1194_nse_dnn_0.90_chair_10_n04429376_16759.JPEG
vgg,1,1195,NaN,dog,chair,0.90,1195_nse_dnn_0.90_chair_10_n03376595_6724.JPEG
vgg,1,1196,NaN,dog,chair,0.90,1196_nse_dnn_0.90_chair_10_n03376595_7660.JPEG
vgg,1,1197,NaN,dog,chair,0.90,1197_nse_dnn_0.90_chair_10_n04099969_8360.JPEG
vgg,1,1198,NaN,bottle,chair,0.90,1198_nse_dnn_0.90_chair_10_n03376595_6090.JPEG
vgg,1,1199,NaN,bottle,chair,0.90,1199_nse_dnn_0.90_chair_10_n02791124_5073.JPEG
vgg,1,1200,NaN,bottle,chair,0.90,1200_nse_dnn_0.90_chair_10_n04099969_24055.JPEG
vgg,1,1201,NaN,dog,bear,0.90,1201_nse_dnn_0.90_bear_10_n02134418_637.JPEG
vgg,1,1202,NaN,bottle,bear,0.90,1202_nse_dnn_0.90_bear_10_n02134084_2364.JPEG
vgg,1,1203,NaN,dog,bear,0.90,1203_nse_dnn_0.90_bear_10_n02134418_3145.JPEG
vgg,1,1204,NaN,bottle,bear,0.90,1204_nse_dnn_0.90_bear_10_n02132136_645.JPEG
vgg,1,1205,NaN,bottle,bear,0.90,1205_nse_dnn_0.90_bear_10_n02133161_7321.JPEG
vgg,1,1206,NaN,bird,bear,0.90,1206_nse_dnn_0.90_bear_10_n02134418_4185.JPEG
vgg,1,1207,NaN,dog,bear,0.90,1207_nse_dnn_0.90_bear_10_n02134418_11706.JPEG
vgg,1,1208,NaN,bird,bear,0.90,1208_nse_dnn_0.90_bear_10_n02134084_3559.JPEG
vgg,1,1209,NaN,dog,bear,0.90,1209_nse_dnn_0.90_bear_10_n02134418_4570.JPEG
vgg,1,1210,NaN,dog,bear,0.90,1210_nse_dnn_0.90_bear_10_n02134418_188.JPEG
vgg,1,1211,NaN,dog,boat,0.90,1211_nse_dnn_0.90_boat_10_n03344393_6870.JPEG
vgg,1,1212,NaN,bottle,boat,0.90,1212_nse_dnn_0.90_boat_10_n02951358_30642.JPEG
vgg,1,1213,NaN,dog,boat,0.90,1213_nse_dnn_0.90_boat_10_n03344393_8626.JPEG
vgg,1,1214,NaN,bottle,boat,0.90,1214_nse_dnn_0.90_boat_10_n04612504_8739.JPEG
vgg,1,1215,NaN,dog,boat,0.90,1215_nse_dnn_0.90_boat_10_n03662601_26247.JPEG
vgg,1,1216,NaN,dog,boat,0.90,1216_nse_dnn_0.90_boat_10_n02951358_2070.JPEG
vgg,1,1217,NaN,bird,boat,0.90,1217_nse_dnn_0.90_boat_10_n03662601_2769.JPEG
vgg,1,1218,NaN,bottle,boat,0.90,1218_nse_dnn_0.90_boat_10_n04612504_11070.JPEG
vgg,1,1219,NaN,dog,boat,0.90,1219_nse_dnn_0.90_boat_10_n03344393_3356.JPEG
vgg,1,1220,NaN,dog,boat,0.90,1220_nse_dnn_0.90_boat_10_n04612504_7566.JPEG
vgg,1,1221,NaN,bottle,cat,0.90,1221_nse_dnn_0.90_cat_10_n02123597_8574.JPEG
vgg,1,1222,NaN,bottle,cat,0.90,1222_nse_dnn_0.90_cat_10_n02123045_4452.JPEG
vgg,1,1223,NaN,bottle,cat,0.90,1223_nse_dnn_0.90_cat_10_n02123394_6296.JPEG
vgg,1,1224,NaN,bird,cat,0.90,1224_nse_dnn_0.90_cat_10_n02123045_12657.JPEG
vgg,1,1225,NaN,bird,cat,0.90,1225_nse_dnn_0.90_cat_10_n02125311_30099.JPEG
vgg,1,1226,NaN,dog,cat,0.90,1226_nse_dnn_0.90_cat_10_n02124075_4509.JPEG
vgg,1,1227,NaN,bottle,cat,0.90,1227_nse_dnn_0.90_cat_10_n02124075_6783.JPEG
vgg,1,1228,NaN,bottle,cat,0.90,1228_nse_dnn_0.90_cat_10_n02123394_7184.JPEG
vgg,1,1229,NaN,bottle,cat,0.90,1229_nse_dnn_0.90_cat_10_n02125311_12897.JPEG
vgg,1,1230,NaN,dog,cat,0.90,1230_nse_dnn_0.90_cat_10_n02123159_3752.JPEG
vgg,1,1231,NaN,bottle,bottle,0.90,1231_nse_dnn_0.90_bottle_10_n02823428_6084.JPEG
vgg,1,1232,NaN,dog,bottle,0.90,1232_nse_dnn_0.90_bottle_10_n03937543_4497.JPEG
vgg,1,1233,NaN,bird,bottle,0.90,1233_nse_dnn_0.90_bottle_10_n03937543_2681.JPEG
vgg,1,1234,NaN,bottle,bottle,0.90,1234_nse_dnn_0.90_bottle_10_n03983396_4695.JPEG
vgg,1,1235,NaN,dog,bottle,0.90,1235_nse_dnn_0.90_bottle_10_n03937543_4964.JPEG
vgg,1,1236,NaN,dog,bottle,0.90,1236_nse_dnn_0.90_bottle_10_n04557648_634.JPEG
vgg,1,1237,NaN,bottle,bottle,0.90,1237_nse_dnn_0.90_bottle_10_n02823428_13705.JPEG
vgg,1,1238,NaN,dog,bottle,0.90,1238_nse_dnn_0.90_bottle_10_n02823428_3941.JPEG
vgg,1,1239,NaN,bottle,bottle,0.90,1239_nse_dnn_0.90_bottle_10_n04557648_19475.JPEG
vgg,1,1240,NaN,dog,bottle,0.90,1240_nse_dnn_0.90_bottle_10_n04591713_5769.JPEG
vgg,1,1241,NaN,dog,truck,0.90,1241_nse_dnn_0.90_truck_10_n04467665_23715.JPEG
vgg,1,1242,NaN,bird,truck,0.90,1242_nse_dnn_0.90_truck_10_n04467665_50806.JPEG
vgg,1,1243,NaN,dog,truck,0.90,1243_nse_dnn_0.90_truck_10_n03796401_26659.JPEG
vgg,1,1244,NaN,dog,truck,0.90,1244_nse_dnn_0.90_truck_10_n03796401_9168.JPEG
vgg,1,1245,NaN,bird,truck,0.90,1245_nse_dnn_0.90_truck_10_n03417042_27085.JPEG
vgg,1,1246,NaN,bird,truck,0.90,1246_nse_dnn_0.90_truck_10_n04467665_73725.JPEG
vgg,1,1247,NaN,bird,truck,0.90,1247_nse_dnn_0.90_truck_10_n03796401_8463.JPEG
vgg,1,1248,NaN,dog,truck,0.90,1248_nse_dnn_0.90_truck_10_n04467665_83642.JPEG
vgg,1,1249,NaN,bird,truck,0.90,1249_nse_dnn_0.90_truck_10_n04467665_79576.JPEG
vgg,1,1250,NaN,dog,truck,0.90,1250_nse_dnn_0.90_truck_10_n03417042_11334.JPEG
vgg,1,1251,NaN,bird,car,0.90,1251_nse_dnn_0.90_car_10_n02814533_86027.JPEG
vgg,1,1252,NaN,dog,car,0.90,1252_nse_dnn_0.90_car_10_n03100240_1446.JPEG
vgg,1,1253,NaN,bottle,car,0.90,1253_nse_dnn_0.90_car_10_n04285008_8699.JPEG
vgg,1,1254,NaN,bottle,car,0.90,1254_nse_dnn_0.90_car_10_n03100240_7120.JPEG
vgg,1,1255,NaN,bird,car,0.90,1255_nse_dnn_0.90_car_10_n02814533_89154.JPEG
vgg,1,1256,NaN,dog,car,0.90,1256_nse_dnn_0.90_car_10_n04285008_2625.JPEG
vgg,1,1257,NaN,dog,car,0.90,1257_nse_dnn_0.90_car_10_n02814533_48575.JPEG
vgg,1,1258,NaN,dog,car,0.90,1258_nse_dnn_0.90_car_10_n04285008_3223.JPEG
vgg,1,1259,NaN,dog,car,0.90,1259_nse_dnn_0.90_car_10_n03100240_8489.JPEG
vgg,1,1260,NaN,dog,car,0.90,1260_nse_dnn_0.90_car_10_n04285008_2850.JPEG
vgg,1,1261,NaN,bottle,bird,0.90,1261_nse_dnn_0.90_bird_10_n01824575_10490.JPEG
vgg,1,1262,NaN,dog,bird,0.90,1262_nse_dnn_0.90_bird_10_n01534433_31134.JPEG
vgg,1,1263,NaN,bird,bird,0.90,1263_nse_dnn_0.90_bird_10_n01622779_2020.JPEG
