subj,session,trial,rt,object_response,category,condition,imagename
vgg,4,1,NaN,bottle,knife,0.00,3841_nse_dnn_0.00_knife_10_n03041632_46185.JPEG
vgg,4,2,NaN,knife,knife,0.00,3842_nse_dnn_0.00_knife_10_n03041632_87380.JPEG
vgg,4,3,NaN,knife,knife,0.00,3843_nse_dnn_0.00_knife_10_n03041632_11613.JPEG
vgg,4,4,NaN,knife,knife,0.00,3844_nse_dnn_0.00_knife_10_n03041632_43634.JPEG
vgg,4,5,NaN,chair,knife,0.00,3845_nse_dnn_0.00_knife_10_n03041632_29276.JPEG
vgg,4,6,NaN,knife,knife,0.00,3846_nse_dnn_0.00_knife_10_n03041632_2438.JPEG
vgg,4,7,NaN,knife,knife,0.00,3847_nse_dnn_0.00_knife_10_n03041632_20770.JPEG
vgg,4,8,NaN,knife,knife,0.00,3848_nse_dnn_0.00_knife_10_n03041632_31301.JPEG
vgg,4,9,NaN,bear,knife,0.00,3849_nse_dnn_0.00_knife_10_n03041632_16606.JPEG
vgg,4,10,NaN,knife,knife,0.00,3850_nse_dnn_0.00_knife_10_n03041632_14224.JPEG
vgg,4,11,NaN,keyboard,keyboard,0.00,3851_nse_dnn_0.00_keyboard_10_n04505470_6421.JPEG
vgg,4,12,NaN,cat,keyboard,0.00,3852_nse_dnn_0.00_keyboard_10_n04505470_9476.JPEG
vgg,4,13,NaN,keyboard,keyboard,0.00,3853_nse_dnn_0.00_keyboard_10_n04505470_2055.JPEG
vgg,4,14,NaN,keyboard,keyboard,0.00,3854_nse_dnn_0.00_keyboard_10_n03085013_19687.JPEG
vgg,4,15,NaN,keyboard,keyboard,0.00,3855_nse_dnn_0.00_keyboard_10_n04505470_4974.JPEG
vgg,4,16,NaN,keyboard,keyboard,0.00,3856_nse_dnn_0.00_keyboard_10_n03085013_22928.JPEG
vgg,4,17,NaN,keyboard,keyboard,0.00,3857_nse_dnn_0.00_keyboard_10_n03085013_23115.JPEG
vgg,4,18,NaN,keyboard,keyboard,0.00,3858_nse_dnn_0.00_keyboard_10_n03085013_7892.JPEG
vgg,4,19,NaN,keyboard,keyboard,0.00,3859_nse_dnn_0.00_keyboard_10_n04505470_206.JPEG
vgg,4,20,NaN,keyboard,keyboard,0.00,3860_nse_dnn_0.00_keyboard_10_n04505470_1040.JPEG
vgg,4,21,NaN,elephant,elephant,0.00,3861_nse_dnn_0.00_elephant_10_n02504013_4229.JPEG
vgg,4,22,NaN,elephant,elephant,0.00,3862_nse_dnn_0.00_elephant_10_n02504458_6412.JPEG
vgg,4,23,NaN,elephant,elephant,0.00,3863_nse_dnn_0.00_elephant_10_n02504013_2686.JPEG
vgg,4,24,NaN,elephant,elephant,0.00,3864_nse_dnn_0.00_elephant_10_n02504458_6107.JPEG
vgg,4,25,NaN,elephant,elephant,0.00,3865_nse_dnn_0.00_elephant_10_n02504458_988.JPEG
vgg,4,26,NaN,elephant,elephant,0.00,3866_nse_dnn_0.00_elephant_10_n02504458_10058.JPEG
vgg,4,27,NaN,elephant,elephant,0.00,3867_nse_dnn_0.00_elephant_10_n02504013_7797.JPEG
vgg,4,28,NaN,elephant,elephant,0.00,3868_nse_dnn_0.00_elephant_10_n02504013_4180.JPEG
vgg,4,29,NaN,elephant,elephant,0.00,3869_nse_dnn_0.00_elephant_10_n02504458_57.JPEG
vgg,4,30,NaN,elephant,elephant,0.00,3870_nse_dnn_0.00_elephant_10_n02504013_3602.JPEG
vgg,4,31,NaN,bicycle,bicycle,0.00,3871_nse_dnn_0.00_bicycle_10_n02835271_3256.JPEG
vgg,4,32,NaN,bicycle,bicycle,0.00,3872_nse_dnn_0.00_bicycle_10_n03792782_21832.JPEG
vgg,4,33,NaN,bicycle,bicycle,0.00,3873_nse_dnn_0.00_bicycle_10_n02835271_7737.JPEG
vgg,4,34,NaN,bicycle,bicycle,0.00,3874_nse_dnn_0.00_bicycle_10_n03792782_50569.JPEG
vgg,4,35,NaN,bicycle,bicycle,0.00,3875_nse_dnn_0.00_bicycle_10_n03792782_13083.JPEG
vgg,4,36,NaN,bicycle,bicycle,0.00,3876_nse_dnn_0.00_bicycle_10_n03792782_8287.JPEG
vgg,4,37,NaN,bicycle,bicycle,0.00,3877_nse_dnn_0.00_bicycle_10_n02835271_2714.JPEG
vgg,4,38,NaN,bicycle,bicycle,0.00,3878_nse_dnn_0.00_bicycle_10_n03792782_15808.JPEG
vgg,4,39,NaN,bicycle,bicycle,0.00,3879_nse_dnn_0.00_bicycle_10_n03792782_30420.JPEG
vgg,4,40,NaN,bicycle,bicycle,0.00,3880_nse_dnn_0.00_bicycle_10_n03792782_3815.JPEG
vgg,4,41,NaN,airplane,airplane,0.00,3881_nse_dnn_0.00_airplane_10_n02690373_3032.JPEG
vgg,4,42,NaN,airplane,airplane,0.00,3882_nse_dnn_0.00_airplane_10_n02690373_813.JPEG
vgg,4,43,NaN,airplane,airplane,0.00,3883_nse_dnn_0.00_airplane_10_n02690373_101.JPEG
vgg,4,44,NaN,airplane,airplane,0.00,3884_nse_dnn_0.00_airplane_10_n02690373_8141.JPEG
vgg,4,45,NaN,airplane,airplane,0.00,3885_nse_dnn_0.00_airplane_10_n02690373_2468.JPEG
vgg,4,46,NaN,airplane,airplane,0.00,3886_nse_dnn_0.00_airplane_10_n02690373_462.JPEG
vgg,4,47,NaN,airplane,airplane,0.00,3887_nse_dnn_0.00_airplane_10_n02690373_8815.JPEG
vgg,4,48,NaN,airplane,airplane,0.00,3888_nse_dnn_0.00_airplane_10_n02690373_4552.JPEG
vgg,4,49,NaN,airplane,airplane,0.00,3889_nse_dnn_0.00_airplane_10_n02690373_9312.JPEG
vgg,4,50,NaN,bird,airplane,0.00,3890_nse_dnn_0.00_airplane_10_n02690373_3334.JPEG
vgg,4,51,NaN,clock,clock,0.00,3891_nse_dnn_0.00_clock_10_n03196217_2346.JPEG
vgg,4,52,NaN,clock,clock,0.00,3892_nse_dnn_0.00_clock_10_n03196217_4947.JPEG
vgg,4,53,NaN,clock,clock,0.00,3893_nse_dnn_0.00_clock_10_n03196217_5893.JPEG
vgg,4,54,NaN,clock,clock,0.00,3894_nse_dnn_0.00_clock_10_n02708093_3622.JPEG
vgg,4,55,NaN,clock,clock,0.00,3895_nse_dnn_0.00_clock_10_n02708093_1461.JPEG
vgg,4,56,NaN,clock,clock,0.00,3896_nse_dnn_0.00_clock_10_n04548280_3398.JPEG
vgg,4,57,NaN,clock,clock,0.00,3897_nse_dnn_0.00_clock_10_n03196217_10717.JPEG
vgg,4,58,NaN,clock,clock,0.00,3898_nse_dnn_0.00_clock_10_n04548280_993.JPEG
vgg,4,59,NaN,clock,clock,0.00,3899_nse_dnn_0.00_clock_10_n03196217_3333.JPEG
vgg,4,60,NaN,clock,clock,0.00,3900_nse_dnn_0.00_clock_10_n02708093_1134.JPEG
vgg,4,61,NaN,oven,oven,0.00,3901_nse_dnn_0.00_oven_10_n04111531_12788.JPEG
vgg,4,62,NaN,oven,oven,0.00,3902_nse_dnn_0.00_oven_10_n04111531_7603.JPEG
vgg,4,63,NaN,oven,oven,0.00,3903_nse_dnn_0.00_oven_10_n04111531_1992.JPEG
vgg,4,64,NaN,oven,oven,0.00,3904_nse_dnn_0.00_oven_10_n04111531_704.JPEG
vgg,4,65,NaN,oven,oven,0.00,3905_nse_dnn_0.00_oven_10_n04111531_22388.JPEG
vgg,4,66,NaN,oven,oven,0.00,3906_nse_dnn_0.00_oven_10_n04111531_18592.JPEG
vgg,4,67,NaN,oven,oven,0.00,3907_nse_dnn_0.00_oven_10_n04111531_19126.JPEG
vgg,4,68,NaN,bicycle,oven,0.00,3908_nse_dnn_0.00_oven_10_n04111531_1674.JPEG
vgg,4,69,NaN,bear,oven,0.00,3909_nse_dnn_0.00_oven_10_n04111531_4585.JPEG
vgg,4,70,NaN,oven,oven,0.00,3910_nse_dnn_0.00_oven_10_n04111531_4370.JPEG
vgg,4,71,NaN,chair,chair,0.00,3911_nse_dnn_0.00_chair_10_n02791124_7167.JPEG
vgg,4,72,NaN,chair,chair,0.00,3912_nse_dnn_0.00_chair_10_n02791124_9744.JPEG
vgg,4,73,NaN,chair,chair,0.00,3913_nse_dnn_0.00_chair_10_n04099969_10667.JPEG
vgg,4,74,NaN,chair,chair,0.00,3914_nse_dnn_0.00_chair_10_n04429376_25268.JPEG
vgg,4,75,NaN,chair,chair,0.00,3915_nse_dnn_0.00_chair_10_n04429376_30823.JPEG
vgg,4,76,NaN,chair,chair,0.00,3916_nse_dnn_0.00_chair_10_n03376595_160.JPEG
vgg,4,77,NaN,chair,chair,0.00,3917_nse_dnn_0.00_chair_10_n04099969_44784.JPEG
vgg,4,78,NaN,chair,chair,0.00,3918_nse_dnn_0.00_chair_10_n03376595_5970.JPEG
vgg,4,79,NaN,chair,chair,0.00,3919_nse_dnn_0.00_chair_10_n04429376_55898.JPEG
vgg,4,80,NaN,chair,chair,0.00,3920_nse_dnn_0.00_chair_10_n03376595_426.JPEG
vgg,4,81,NaN,bear,bear,0.00,3921_nse_dnn_0.00_bear_10_n02133161_752.JPEG
vgg,4,82,NaN,bear,bear,0.00,3922_nse_dnn_0.00_bear_10_n02134418_4685.JPEG
vgg,4,83,NaN,bear,bear,0.00,3923_nse_dnn_0.00_bear_10_n02133161_848.JPEG
vgg,4,84,NaN,bear,bear,0.00,3924_nse_dnn_0.00_bear_10_n02132136_8539.JPEG
vgg,4,85,NaN,bird,bear,0.00,3925_nse_dnn_0.00_bear_10_n02134418_1263.JPEG
vgg,4,86,NaN,bear,bear,0.00,3926_nse_dnn_0.00_bear_10_n02132136_8033.JPEG
vgg,4,87,NaN,bear,bear,0.00,3927_nse_dnn_0.00_bear_10_n02134084_12801.JPEG
vgg,4,88,NaN,bear,bear,0.00,3928_nse_dnn_0.00_bear_10_n02132136_2815.JPEG
vgg,4,89,NaN,bear,bear,0.00,3929_nse_dnn_0.00_bear_10_n02134084_4547.JPEG
vgg,4,90,NaN,bear,bear,0.00,3930_nse_dnn_0.00_bear_10_n02134084_16127.JPEG
vgg,4,91,NaN,boat,boat,0.00,3931_nse_dnn_0.00_boat_10_n03344393_4341.JPEG
vgg,4,92,NaN,boat,boat,0.00,3932_nse_dnn_0.00_boat_10_n03662601_18610.JPEG
vgg,4,93,NaN,boat,boat,0.00,3933_nse_dnn_0.00_boat_10_n03662601_11862.JPEG
vgg,4,94,NaN,boat,boat,0.00,3934_nse_dnn_0.00_boat_10_n02951358_7451.JPEG
vgg,4,95,NaN,boat,boat,0.00,3935_nse_dnn_0.00_boat_10_n02951358_2813.JPEG
vgg,4,96,NaN,boat,boat,0.00,3936_nse_dnn_0.00_boat_10_n03344393_617.JPEG
vgg,4,97,NaN,boat,boat,0.00,3937_nse_dnn_0.00_boat_10_n04612504_8407.JPEG
vgg,4,98,NaN,boat,boat,0.00,3938_nse_dnn_0.00_boat_10_n04273569_3810.JPEG
vgg,4,99,NaN,boat,boat,0.00,3939_nse_dnn_0.00_boat_10_n04273569_3348.JPEG
vgg,4,100,NaN,boat,boat,0.00,3940_nse_dnn_0.00_boat_10_n04273569_13757.JPEG
vgg,4,101,NaN,dog,cat,0.00,3941_nse_dnn_0.00_cat_10_n02123597_2239.JPEG
vgg,4,102,NaN,cat,cat,0.00,3942_nse_dnn_0.00_cat_10_n02124075_7406.JPEG
vgg,4,103,NaN,cat,cat,0.00,3943_nse_dnn_0.00_cat_10_n02123159_619.JPEG
vgg,4,104,NaN,dog,cat,0.00,3944_nse_dnn_0.00_cat_10_n02123394_1879.JPEG
vgg,4,105,NaN,cat,cat,0.00,3945_nse_dnn_0.00_cat_10_n02123597_1054.JPEG
vgg,4,106,NaN,cat,cat,0.00,3946_nse_dnn_0.00_cat_10_n02125311_6746.JPEG
vgg,4,107,NaN,bird,cat,0.00,3947_nse_dnn_0.00_cat_10_n02123045_7161.JPEG
vgg,4,108,NaN,cat,cat,0.00,3948_nse_dnn_0.00_cat_10_n02123045_10938.JPEG
vgg,4,109,NaN,cat,cat,0.00,3949_nse_dnn_0.00_cat_10_n02123159_6927.JPEG
vgg,4,110,NaN,cat,cat,0.00,3950_nse_dnn_0.00_cat_10_n02123159_8030.JPEG
vgg,4,111,NaN,bottle,bottle,0.00,3951_nse_dnn_0.00_bottle_10_n02823428_1184.JPEG
vgg,4,112,NaN,bottle,bottle,0.00,3952_nse_dnn_0.00_bottle_10_n02823428_8365.JPEG
vgg,4,113,NaN,bottle,bottle,0.00,3953_nse_dnn_0.00_bottle_10_n03937543_964.JPEG
vgg,4,114,NaN,bottle,bottle,0.00,3954_nse_dnn_0.00_bottle_10_n03937543_2862.JPEG
vgg,4,115,NaN,truck,bottle,0.00,3955_nse_dnn_0.00_bottle_10_n02823428_232.JPEG
vgg,4,116,NaN,bottle,bottle,0.00,3956_nse_dnn_0.00_bottle_10_n03937543_5359.JPEG
vgg,4,117,NaN,bottle,bottle,0.00,3957_nse_dnn_0.00_bottle_10_n04557648_31576.JPEG
vgg,4,118,NaN,airplane,bottle,0.00,3958_nse_dnn_0.00_bottle_10_n02823428_6263.JPEG
vgg,4,119,NaN,bottle,bottle,0.00,3959_nse_dnn_0.00_bottle_10_n03983396_2095.JPEG
vgg,4,120,NaN,bottle,bottle,0.00,3960_nse_dnn_0.00_bottle_10_n03983396_17287.JPEG
vgg,4,121,NaN,truck,truck,0.00,3961_nse_dnn_0.00_truck_10_n04467665_43978.JPEG
vgg,4,122,NaN,truck,truck,0.00,3962_nse_dnn_0.00_truck_10_n04467665_16914.JPEG
vgg,4,123,NaN,truck,truck,0.00,3963_nse_dnn_0.00_truck_10_n03417042_5634.JPEG
vgg,4,124,NaN,truck,truck,0.00,3964_nse_dnn_0.00_truck_10_n03796401_21362.JPEG
vgg,4,125,NaN,truck,truck,0.00,3965_nse_dnn_0.00_truck_10_n03417042_1840.JPEG
vgg,4,126,NaN,truck,truck,0.00,3966_nse_dnn_0.00_truck_10_n04467665_64269.JPEG
vgg,4,127,NaN,truck,truck,0.00,3967_nse_dnn_0.00_truck_10_n03796401_27288.JPEG
vgg,4,128,NaN,truck,truck,0.00,3968_nse_dnn_0.00_truck_10_n03417042_18329.JPEG
vgg,4,129,NaN,truck,truck,0.00,3969_nse_dnn_0.00_truck_10_n03417042_7160.JPEG
vgg,4,130,NaN,truck,truck,0.00,3970_nse_dnn_0.00_truck_10_n03417042_2230.JPEG
vgg,4,131,NaN,car,car,0.00,3971_nse_dnn_0.00_car_10_n03100240_7134.JPEG
vgg,4,132,NaN,car,car,0.00,3972_nse_dnn_0.00_car_10_n02814533_72079.JPEG
vgg,4,133,NaN,car,car,0.00,3973_nse_dnn_0.00_car_10_n04285008_7630.JPEG
vgg,4,134,NaN,car,car,0.00,3974_nse_dnn_0.00_car_10_n02814533_5529.JPEG
vgg,4,135,NaN,car,car,0.00,3975_nse_dnn_0.00_car_10_n02814533_83806.JPEG
vgg,4,136,NaN,truck,car,0.00,3976_nse_dnn_0.00_car_10_n04285008_13131.JPEG
vgg,4,137,NaN,car,car,0.00,3977_nse_dnn_0.00_car_10_n02814533_3497.JPEG
vgg,4,138,NaN,car,car,0.00,3978_nse_dnn_0.00_car_10_n02814533_19620.JPEG
vgg,4,139,NaN,car,car,0.00,3979_nse_dnn_0.00_car_10_n04285008_6996.JPEG
vgg,4,140,NaN,car,car,0.00,3980_nse_dnn_0.00_car_10_n04285008_3514.JPEG
vgg,4,141,NaN,bird,bird,0.00,3981_nse_dnn_0.00_bird_10_n01797886_8111.JPEG
vgg,4,142,NaN,bird,bird,0.00,3982_nse_dnn_0.00_bird_10_n01824575_2719.JPEG
vgg,4,143,NaN,bird,bird,0.00,3983_nse_dnn_0.00_bird_10_n01817953_11717.JPEG
vgg,4,144,NaN,bird,bird,0.00,3984_nse_dnn_0.00_bird_10_n01829413_5691.JPEG
vgg,4,145,NaN,bird,bird,0.00,3985_nse_dnn_0.00_bird_10_n02006656_247.JPEG
vgg,4,146,NaN,bird,bird,0.00,3986_nse_dnn_0.00_bird_10_n01828970_7308.JPEG
vgg,4,147,NaN,bird,bird,0.00,3987_nse_dnn_0.00_bird_10_n02017213_2529.JPEG
vgg,4,148,NaN,bird,bird,0.00,3988_nse_dnn_0.00_bird_10_n02013706_3808.JPEG
vgg,4,149,NaN,bird,bird,0.00,3989_nse_dnn_0.00_bird_10_n01797886_7547.JPEG
vgg,4,150,NaN,bird,bird,0.00,3990_nse_dnn_0.00_bird_10_n01833805_640.JPEG
vgg,4,151,NaN,dog,dog,0.00,3991_nse_dnn_0.00_dog_10_n02097209_5483.JPEG
vgg,4,152,NaN,dog,dog,0.00,3992_nse_dnn_0.00_dog_10_n02087046_4236.JPEG
vgg,4,153,NaN,dog,dog,0.00,3993_nse_dnn_0.00_dog_10_n02108422_7787.JPEG
vgg,4,154,NaN,dog,dog,0.00,3994_nse_dnn_0.00_dog_10_n02100583_23082.JPEG
vgg,4,155,NaN,dog,dog,0.00,3995_nse_dnn_0.00_dog_10_n02092002_11611.JPEG
vgg,4,156,NaN,dog,dog,0.00,3996_nse_dnn_0.00_dog_10_n02095570_2882.JPEG
vgg,4,157,NaN,dog,dog,0.00,3997_nse_dnn_0.00_dog_10_n02094258_1757.JPEG
vgg,4,158,NaN,dog,dog,0.00,3998_nse_dnn_0.00_dog_10_n02091032_17.JPEG
vgg,4,159,NaN,dog,dog,0.00,3999_nse_dnn_0.00_dog_10_n02089973_4780.JPEG
vgg,4,160,NaN,dog,dog,0.00,4000_nse_dnn_0.00_dog_10_n02110958_6262.JPEG
vgg,4,161,NaN,dog,knife,0.03,4001_nse_dnn_0.03_knife_10_n03041632_7173.JPEG
vgg,4,162,NaN,keyboard,knife,0.03,4002_nse_dnn_0.03_knife_10_n03041632_18863.JPEG
vgg,4,163,NaN,clock,knife,0.03,4003_nse_dnn_0.03_knife_10_n03041632_26314.JPEG
vgg,4,164,NaN,knife,knife,0.03,4004_nse_dnn_0.03_knife_10_n03041632_2630.JPEG
vgg,4,165,NaN,knife,knife,0.03,4005_nse_dnn_0.03_knife_10_n03041632_29827.JPEG
vgg,4,166,NaN,knife,knife,0.03,4006_nse_dnn_0.03_knife_10_n03041632_424.JPEG
vgg,4,167,NaN,knife,knife,0.03,4007_nse_dnn_0.03_knife_10_n03041632_1407.JPEG
vgg,4,168,NaN,knife,knife,0.03,4008_nse_dnn_0.03_knife_10_n03041632_9406.JPEG
vgg,4,169,NaN,knife,knife,0.03,4009_nse_dnn_0.03_knife_10_n03041632_17820.JPEG
vgg,4,170,NaN,bottle,knife,0.03,4010_nse_dnn_0.03_knife_10_n03041632_7279.JPEG
vgg,4,171,NaN,keyboard,keyboard,0.03,4011_nse_dnn_0.03_keyboard_10_n03085013_18719.JPEG
vgg,4,172,NaN,keyboard,keyboard,0.03,4012_nse_dnn_0.03_keyboard_10_n03085013_1129.JPEG
vgg,4,173,NaN,keyboard,keyboard,0.03,4013_nse_dnn_0.03_keyboard_10_n03085013_21155.JPEG
vgg,4,174,NaN,keyboard,keyboard,0.03,4014_nse_dnn_0.03_keyboard_10_n03085013_21008.JPEG
vgg,4,175,NaN,keyboard,keyboard,0.03,4015_nse_dnn_0.03_keyboard_10_n03085013_29576.JPEG
vgg,4,176,NaN,dog,keyboard,0.03,4016_nse_dnn_0.03_keyboard_10_n03085013_22002.JPEG
vgg,4,177,NaN,keyboard,keyboard,0.03,4017_nse_dnn_0.03_keyboard_10_n03085013_8325.JPEG
vgg,4,178,NaN,keyboard,keyboard,0.03,4018_nse_dnn_0.03_keyboard_10_n03085013_19818.JPEG
vgg,4,179,NaN,keyboard,keyboard,0.03,4019_nse_dnn_0.03_keyboard_10_n03085013_29042.JPEG
vgg,4,180,NaN,keyboard,keyboard,0.03,4020_nse_dnn_0.03_keyboard_10_n03085013_3148.JPEG
vgg,4,181,NaN,elephant,elephant,0.03,4021_nse_dnn_0.03_elephant_10_n02504458_5155.JPEG
vgg,4,182,NaN,elephant,elephant,0.03,4022_nse_dnn_0.03_elephant_10_n02504458_4401.JPEG
vgg,4,183,NaN,elephant,elephant,0.03,4023_nse_dnn_0.03_elephant_10_n02504013_21616.JPEG
vgg,4,184,NaN,elephant,elephant,0.03,4024_nse_dnn_0.03_elephant_10_n02504013_3173.JPEG
vgg,4,185,NaN,elephant,elephant,0.03,4025_nse_dnn_0.03_elephant_10_n02504458_1933.JPEG
vgg,4,186,NaN,elephant,elephant,0.03,4026_nse_dnn_0.03_elephant_10_n02504458_458.JPEG
vgg,4,187,NaN,elephant,elephant,0.03,4027_nse_dnn_0.03_elephant_10_n02504458_5648.JPEG
vgg,4,188,NaN,elephant,elephant,0.03,4028_nse_dnn_0.03_elephant_10_n02504458_8151.JPEG
vgg,4,189,NaN,elephant,elephant,0.03,4029_nse_dnn_0.03_elephant_10_n02504458_3928.JPEG
vgg,4,190,NaN,elephant,elephant,0.03,4030_nse_dnn_0.03_elephant_10_n02504458_5778.JPEG
vgg,4,191,NaN,dog,bicycle,0.03,4031_nse_dnn_0.03_bicycle_10_n02835271_13256.JPEG
vgg,4,192,NaN,bicycle,bicycle,0.03,4032_nse_dnn_0.03_bicycle_10_n02835271_12405.JPEG
vgg,4,193,NaN,bicycle,bicycle,0.03,4033_nse_dnn_0.03_bicycle_10_n03792782_4864.JPEG
vgg,4,194,NaN,bicycle,bicycle,0.03,4034_nse_dnn_0.03_bicycle_10_n02835271_12385.JPEG
vgg,4,195,NaN,bicycle,bicycle,0.03,4035_nse_dnn_0.03_bicycle_10_n02835271_1141.JPEG
vgg,4,196,NaN,bicycle,bicycle,0.03,4036_nse_dnn_0.03_bicycle_10_n03792782_11995.JPEG
vgg,4,197,NaN,truck,bicycle,0.03,4037_nse_dnn_0.03_bicycle_10_n02835271_8832.JPEG
vgg,4,198,NaN,bicycle,bicycle,0.03,4038_nse_dnn_0.03_bicycle_10_n03792782_7212.JPEG
vgg,4,199,NaN,bicycle,bicycle,0.03,4039_nse_dnn_0.03_bicycle_10_n03792782_6102.JPEG
vgg,4,200,NaN,dog,bicycle,0.03,4040_nse_dnn_0.03_bicycle_10_n02835271_13498.JPEG
vgg,4,201,NaN,airplane,airplane,0.03,4041_nse_dnn_0.03_airplane_10_n02690373_2253.JPEG
vgg,4,202,NaN,airplane,airplane,0.03,4042_nse_dnn_0.03_airplane_10_n02690373_3988.JPEG
vgg,4,203,NaN,clock,airplane,0.03,4043_nse_dnn_0.03_airplane_10_n02690373_3400.JPEG
vgg,4,204,NaN,airplane,airplane,0.03,4044_nse_dnn_0.03_airplane_10_n02690373_18304.JPEG
vgg,4,205,NaN,airplane,airplane,0.03,4045_nse_dnn_0.03_airplane_10_n02690373_8619.JPEG
vgg,4,206,NaN,boat,airplane,0.03,4046_nse_dnn_0.03_airplane_10_n02690373_4188.JPEG
vgg,4,207,NaN,airplane,airplane,0.03,4047_nse_dnn_0.03_airplane_10_n02690373_8740.JPEG
vgg,4,208,NaN,airplane,airplane,0.03,4048_nse_dnn_0.03_airplane_10_n02690373_3753.JPEG
vgg,4,209,NaN,airplane,airplane,0.03,4049_nse_dnn_0.03_airplane_10_n02690373_9812.JPEG
vgg,4,210,NaN,airplane,airplane,0.03,4050_nse_dnn_0.03_airplane_10_n02690373_1094.JPEG
vgg,4,211,NaN,clock,clock,0.03,4051_nse_dnn_0.03_clock_10_n04548280_8668.JPEG
vgg,4,212,NaN,clock,clock,0.03,4052_nse_dnn_0.03_clock_10_n04548280_8357.JPEG
vgg,4,213,NaN,clock,clock,0.03,4053_nse_dnn_0.03_clock_10_n02708093_2025.JPEG
vgg,4,214,NaN,clock,clock,0.03,4054_nse_dnn_0.03_clock_10_n03196217_3109.JPEG
vgg,4,215,NaN,knife,clock,0.03,4055_nse_dnn_0.03_clock_10_n04548280_3644.JPEG
vgg,4,216,NaN,clock,clock,0.03,4056_nse_dnn_0.03_clock_10_n03196217_3104.JPEG
vgg,4,217,NaN,clock,clock,0.03,4057_nse_dnn_0.03_clock_10_n04548280_11806.JPEG
vgg,4,218,NaN,clock,clock,0.03,4058_nse_dnn_0.03_clock_10_n04548280_4758.JPEG
vgg,4,219,NaN,clock,clock,0.03,4059_nse_dnn_0.03_clock_10_n02708093_2020.JPEG
vgg,4,220,NaN,clock,clock,0.03,4060_nse_dnn_0.03_clock_10_n04548280_1.JPEG
vgg,4,221,NaN,truck,oven,0.03,4061_nse_dnn_0.03_oven_10_n04111531_14208.JPEG
vgg,4,222,NaN,oven,oven,0.03,4062_nse_dnn_0.03_oven_10_n04111531_22916.JPEG
vgg,4,223,NaN,chair,oven,0.03,4063_nse_dnn_0.03_oven_10_n04111531_7189.JPEG
vgg,4,224,NaN,chair,oven,0.03,4064_nse_dnn_0.03_oven_10_n04111531_1977.JPEG
vgg,4,225,NaN,oven,oven,0.03,4065_nse_dnn_0.03_oven_10_n04111531_1562.JPEG
vgg,4,226,NaN,oven,oven,0.03,4066_nse_dnn_0.03_oven_10_n04111531_5643.JPEG
vgg,4,227,NaN,oven,oven,0.03,4067_nse_dnn_0.03_oven_10_n04111531_8117.JPEG
vgg,4,228,NaN,oven,oven,0.03,4068_nse_dnn_0.03_oven_10_n04111531_7821.JPEG
vgg,4,229,NaN,oven,oven,0.03,4069_nse_dnn_0.03_oven_10_n04111531_3911.JPEG
vgg,4,230,NaN,oven,oven,0.03,4070_nse_dnn_0.03_oven_10_n04111531_6428.JPEG
vgg,4,231,NaN,chair,chair,0.03,4071_nse_dnn_0.03_chair_10_n04429376_2592.JPEG
vgg,4,232,NaN,chair,chair,0.03,4072_nse_dnn_0.03_chair_10_n03376595_6173.JPEG
vgg,4,233,NaN,chair,chair,0.03,4073_nse_dnn_0.03_chair_10_n04099969_1213.JPEG
vgg,4,234,NaN,chair,chair,0.03,4074_nse_dnn_0.03_chair_10_n04099969_8488.JPEG
vgg,4,235,NaN,chair,chair,0.03,4075_nse_dnn_0.03_chair_10_n02791124_9124.JPEG
vgg,4,236,NaN,clock,chair,0.03,4076_nse_dnn_0.03_chair_10_n04429376_15771.JPEG
vgg,4,237,NaN,chair,chair,0.03,4077_nse_dnn_0.03_chair_10_n04099969_19264.JPEG
vgg,4,238,NaN,bird,chair,0.03,4078_nse_dnn_0.03_chair_10_n03376595_4745.JPEG
vgg,4,239,NaN,chair,chair,0.03,4079_nse_dnn_0.03_chair_10_n04099969_43.JPEG
vgg,4,240,NaN,chair,chair,0.03,4080_nse_dnn_0.03_chair_10_n04099969_4609.JPEG
vgg,4,241,NaN,dog,bear,0.03,4081_nse_dnn_0.03_bear_10_n02134418_5750.JPEG
vgg,4,242,NaN,bear,bear,0.03,4082_nse_dnn_0.03_bear_10_n02134084_647.JPEG
vgg,4,243,NaN,boat,bear,0.03,4083_nse_dnn_0.03_bear_10_n02134084_19849.JPEG
vgg,4,244,NaN,bear,bear,0.03,4084_nse_dnn_0.03_bear_10_n02133161_4883.JPEG
vgg,4,245,NaN,bear,bear,0.03,4085_nse_dnn_0.03_bear_10_n02132136_9619.JPEG
vgg,4,246,NaN,dog,bear,0.03,4086_nse_dnn_0.03_bear_10_n02134418_1871.JPEG
vgg,4,247,NaN,bear,bear,0.03,4087_nse_dnn_0.03_bear_10_n02132136_1620.JPEG
vgg,4,248,NaN,bear,bear,0.03,4088_nse_dnn_0.03_bear_10_n02132136_839.JPEG
vgg,4,249,NaN,bear,bear,0.03,4089_nse_dnn_0.03_bear_10_n02134418_529.JPEG
vgg,4,250,NaN,bear,bear,0.03,4090_nse_dnn_0.03_bear_10_n02134418_11554.JPEG
vgg,4,251,NaN,boat,boat,0.03,4091_nse_dnn_0.03_boat_10_n02951358_11189.JPEG
vgg,4,252,NaN,boat,boat,0.03,4092_nse_dnn_0.03_boat_10_n03344393_4096.JPEG
vgg,4,253,NaN,boat,boat,0.03,4093_nse_dnn_0.03_boat_10_n03344393_2946.JPEG
vgg,4,254,NaN,boat,boat,0.03,4094_nse_dnn_0.03_boat_10_n03344393_7773.JPEG
vgg,4,255,NaN,boat,boat,0.03,4095_nse_dnn_0.03_boat_10_n04273569_23162.JPEG
vgg,4,256,NaN,boat,boat,0.03,4096_nse_dnn_0.03_boat_10_n03344393_7826.JPEG
vgg,4,257,NaN,boat,boat,0.03,4097_nse_dnn_0.03_boat_10_n02951358_20813.JPEG
vgg,4,258,NaN,boat,boat,0.03,4098_nse_dnn_0.03_boat_10_n03344393_5265.JPEG
vgg,4,259,NaN,boat,boat,0.03,4099_nse_dnn_0.03_boat_10_n04612504_11939.JPEG
vgg,4,260,NaN,boat,boat,0.03,4100_nse_dnn_0.03_boat_10_n03344393_7748.JPEG
vgg,4,261,NaN,cat,cat,0.03,4101_nse_dnn_0.03_cat_10_n02123394_8318.JPEG
vgg,4,262,NaN,cat,cat,0.03,4102_nse_dnn_0.03_cat_10_n02123597_7121.JPEG
vgg,4,263,NaN,cat,cat,0.03,4103_nse_dnn_0.03_cat_10_n02123394_255.JPEG
vgg,4,264,NaN,cat,cat,0.03,4104_nse_dnn_0.03_cat_10_n02124075_12282.JPEG
vgg,4,265,NaN,cat,cat,0.03,4105_nse_dnn_0.03_cat_10_n02124075_12139.JPEG
vgg,4,266,NaN,cat,cat,0.03,4106_nse_dnn_0.03_cat_10_n02123159_4668.JPEG
vgg,4,267,NaN,cat,cat,0.03,4107_nse_dnn_0.03_cat_10_n02123597_2209.JPEG
vgg,4,268,NaN,dog,cat,0.03,4108_nse_dnn_0.03_cat_10_n02123597_7423.JPEG
vgg,4,269,NaN,cat,cat,0.03,4109_nse_dnn_0.03_cat_10_n02123159_7856.JPEG
vgg,4,270,NaN,cat,cat,0.03,4110_nse_dnn_0.03_cat_10_n02123159_1011.JPEG
vgg,4,271,NaN,bottle,bottle,0.03,4111_nse_dnn_0.03_bottle_10_n02823428_1618.JPEG
vgg,4,272,NaN,bottle,bottle,0.03,4112_nse_dnn_0.03_bottle_10_n03937543_5324.JPEG
vgg,4,273,NaN,bottle,bottle,0.03,4113_nse_dnn_0.03_bottle_10_n03983396_4977.JPEG
vgg,4,274,NaN,bottle,bottle,0.03,4114_nse_dnn_0.03_bottle_10_n04557648_3291.JPEG
vgg,4,275,NaN,bottle,bottle,0.03,4115_nse_dnn_0.03_bottle_10_n04579145_3540.JPEG
vgg,4,276,NaN,bottle,bottle,0.03,4116_nse_dnn_0.03_bottle_10_n04579145_7388.JPEG
vgg,4,277,NaN,bottle,bottle,0.03,4117_nse_dnn_0.03_bottle_10_n03983396_9413.JPEG
vgg,4,278,NaN,bottle,bottle,0.03,4118_nse_dnn_0.03_bottle_10_n02823428_1695.JPEG
vgg,4,279,NaN,bottle,bottle,0.03,4119_nse_dnn_0.03_bottle_10_n04560804_24278.JPEG
vgg,4,280,NaN,bottle,bottle,0.03,4120_nse_dnn_0.03_bottle_10_n04560804_692.JPEG
vgg,4,281,NaN,truck,truck,0.03,4121_nse_dnn_0.03_truck_10_n03417042_4542.JPEG
vgg,4,282,NaN,truck,truck,0.03,4122_nse_dnn_0.03_truck_10_n03417042_5331.JPEG
vgg,4,283,NaN,truck,truck,0.03,4123_nse_dnn_0.03_truck_10_n04467665_44850.JPEG
vgg,4,284,NaN,truck,truck,0.03,4124_nse_dnn_0.03_truck_10_n03796401_24365.JPEG
vgg,4,285,NaN,truck,truck,0.03,4125_nse_dnn_0.03_truck_10_n03417042_13871.JPEG
vgg,4,286,NaN,truck,truck,0.03,4126_nse_dnn_0.03_truck_10_n04467665_1174.JPEG
vgg,4,287,NaN,truck,truck,0.03,4127_nse_dnn_0.03_truck_10_n04467665_6365.JPEG
vgg,4,288,NaN,boat,truck,0.03,4128_nse_dnn_0.03_truck_10_n04467665_70584.JPEG
vgg,4,289,NaN,truck,truck,0.03,4129_nse_dnn_0.03_truck_10_n03417042_10677.JPEG
vgg,4,290,NaN,truck,truck,0.03,4130_nse_dnn_0.03_truck_10_n03417042_9121.JPEG
vgg,4,291,NaN,truck,car,0.03,4131_nse_dnn_0.03_car_10_n03100240_4198.JPEG
vgg,4,292,NaN,truck,car,0.03,4132_nse_dnn_0.03_car_10_n03100240_1018.JPEG
vgg,4,293,NaN,car,car,0.03,4133_nse_dnn_0.03_car_10_n04285008_536.JPEG
vgg,4,294,NaN,car,car,0.03,4134_nse_dnn_0.03_car_10_n04285008_11452.JPEG
vgg,4,295,NaN,car,car,0.03,4135_nse_dnn_0.03_car_10_n03100240_151.JPEG
vgg,4,296,NaN,car,car,0.03,4136_nse_dnn_0.03_car_10_n03100240_5573.JPEG
vgg,4,297,NaN,truck,car,0.03,4137_nse_dnn_0.03_car_10_n03100240_5456.JPEG
vgg,4,298,NaN,car,car,0.03,4138_nse_dnn_0.03_car_10_n04285008_7744.JPEG
vgg,4,299,NaN,truck,car,0.03,4139_nse_dnn_0.03_car_10_n03100240_2417.JPEG
vgg,4,300,NaN,truck,car,0.03,4140_nse_dnn_0.03_car_10_n04285008_5321.JPEG
vgg,4,301,NaN,dog,bird,0.03,4141_nse_dnn_0.03_bird_10_n01843065_5497.JPEG
vgg,4,302,NaN,bird,bird,0.03,4142_nse_dnn_0.03_bird_10_n02002556_25393.JPEG
vgg,4,303,NaN,bird,bird,0.03,4143_nse_dnn_0.03_bird_10_n01833805_725.JPEG
vgg,4,304,NaN,bird,bird,0.03,4144_nse_dnn_0.03_bird_10_n01843065_2804.JPEG
vgg,4,305,NaN,bird,bird,0.03,4145_nse_dnn_0.03_bird_10_n02009912_15872.JPEG
vgg,4,306,NaN,clock,bird,0.03,4146_nse_dnn_0.03_bird_10_n01798484_13488.JPEG
vgg,4,307,NaN,bird,bird,0.03,4147_nse_dnn_0.03_bird_10_n02002556_9205.JPEG
vgg,4,308,NaN,cat,bird,0.03,4148_nse_dnn_0.03_bird_10_n01537544_2677.JPEG
vgg,4,309,NaN,bird,bird,0.03,4149_nse_dnn_0.03_bird_10_n01819313_4923.JPEG
vgg,4,310,NaN,bird,bird,0.03,4150_nse_dnn_0.03_bird_10_n01601694_15376.JPEG
vgg,4,311,NaN,dog,dog,0.03,4151_nse_dnn_0.03_dog_10_n02099849_8160.JPEG
vgg,4,312,NaN,dog,dog,0.03,4152_nse_dnn_0.03_dog_10_n02105855_2810.JPEG
vgg,4,313,NaN,dog,dog,0.03,4153_nse_dnn_0.03_dog_10_n02102318_9787.JPEG
vgg,4,314,NaN,dog,dog,0.03,4154_nse_dnn_0.03_dog_10_n02092002_1246.JPEG
vgg,4,315,NaN,dog,dog,0.03,4155_nse_dnn_0.03_dog_10_n02094258_1941.JPEG
vgg,4,316,NaN,dog,dog,0.03,4156_nse_dnn_0.03_dog_10_n02105505_7520.JPEG
vgg,4,317,NaN,dog,dog,0.03,4157_nse_dnn_0.03_dog_10_n02098105_10397.JPEG
vgg,4,318,NaN,dog,dog,0.03,4158_nse_dnn_0.03_dog_10_n02107908_9572.JPEG
vgg,4,319,NaN,dog,dog,0.03,4159_nse_dnn_0.03_dog_10_n02099429_5345.JPEG
vgg,4,320,NaN,dog,dog,0.03,4160_nse_dnn_0.03_dog_10_n02108915_6008.JPEG
vgg,4,321,NaN,knife,knife,0.05,4161_nse_dnn_0.05_knife_10_n03041632_5427.JPEG
vgg,4,322,NaN,knife,knife,0.05,4162_nse_dnn_0.05_knife_10_n03041632_39739.JPEG
vgg,4,323,NaN,dog,knife,0.05,4163_nse_dnn_0.05_knife_10_n03041632_86251.JPEG
vgg,4,324,NaN,knife,knife,0.05,4164_nse_dnn_0.05_knife_10_n03041632_21590.JPEG
vgg,4,325,NaN,clock,knife,0.05,4165_nse_dnn_0.05_knife_10_n03041632_8528.JPEG
vgg,4,326,NaN,knife,knife,0.05,4166_nse_dnn_0.05_knife_10_n03041632_52040.JPEG
vgg,4,327,NaN,knife,knife,0.05,4167_nse_dnn_0.05_knife_10_n03041632_14774.JPEG
vgg,4,328,NaN,dog,knife,0.05,4168_nse_dnn_0.05_knife_10_n03041632_206.JPEG
vgg,4,329,NaN,knife,knife,0.05,4169_nse_dnn_0.05_knife_10_n03041632_32004.JPEG
vgg,4,330,NaN,knife,knife,0.05,4170_nse_dnn_0.05_knife_10_n03041632_98864.JPEG
vgg,4,331,NaN,keyboard,keyboard,0.05,4171_nse_dnn_0.05_keyboard_10_n03085013_23583.JPEG
vgg,4,332,NaN,truck,keyboard,0.05,4172_nse_dnn_0.05_keyboard_10_n04505470_4624.JPEG
vgg,4,333,NaN,keyboard,keyboard,0.05,4173_nse_dnn_0.05_keyboard_10_n04505470_848.JPEG
vgg,4,334,NaN,keyboard,keyboard,0.05,4174_nse_dnn_0.05_keyboard_10_n03085013_2122.JPEG
vgg,4,335,NaN,keyboard,keyboard,0.05,4175_nse_dnn_0.05_keyboard_10_n03085013_22016.JPEG
vgg,4,336,NaN,clock,keyboard,0.05,4176_nse_dnn_0.05_keyboard_10_n04505470_4539.JPEG
vgg,4,337,NaN,keyboard,keyboard,0.05,4177_nse_dnn_0.05_keyboard_10_n04505470_3566.JPEG
vgg,4,338,NaN,keyboard,keyboard,0.05,4178_nse_dnn_0.05_keyboard_10_n04505470_8620.JPEG
vgg,4,339,NaN,keyboard,keyboard,0.05,4179_nse_dnn_0.05_keyboard_10_n04505470_1691.JPEG
vgg,4,340,NaN,keyboard,keyboard,0.05,4180_nse_dnn_0.05_keyboard_10_n03085013_21115.JPEG
vgg,4,341,NaN,elephant,elephant,0.05,4181_nse_dnn_0.05_elephant_10_n02504013_6549.JPEG
vgg,4,342,NaN,bear,elephant,0.05,4182_nse_dnn_0.05_elephant_10_n02504458_7901.JPEG
vgg,4,343,NaN,elephant,elephant,0.05,4183_nse_dnn_0.05_elephant_10_n02504458_7565.JPEG
vgg,4,344,NaN,elephant,elephant,0.05,4184_nse_dnn_0.05_elephant_10_n02504013_13427.JPEG
vgg,4,345,NaN,elephant,elephant,0.05,4185_nse_dnn_0.05_elephant_10_n02504458_6033.JPEG
vgg,4,346,NaN,boat,elephant,0.05,4186_nse_dnn_0.05_elephant_10_n02504013_14918.JPEG
vgg,4,347,NaN,truck,elephant,0.05,4187_nse_dnn_0.05_elephant_10_n02504013_4339.JPEG
vgg,4,348,NaN,elephant,elephant,0.05,4188_nse_dnn_0.05_elephant_10_n02504013_15805.JPEG
vgg,4,349,NaN,elephant,elephant,0.05,4189_nse_dnn_0.05_elephant_10_n02504013_9130.JPEG
vgg,4,350,NaN,elephant,elephant,0.05,4190_nse_dnn_0.05_elephant_10_n02504013_7143.JPEG
vgg,4,351,NaN,bicycle,bicycle,0.05,4191_nse_dnn_0.05_bicycle_10_n03792782_607.JPEG
vgg,4,352,NaN,bicycle,bicycle,0.05,4192_nse_dnn_0.05_bicycle_10_n02835271_11884.JPEG
vgg,4,353,NaN,bicycle,bicycle,0.05,4193_nse_dnn_0.05_bicycle_10_n02835271_7813.JPEG
vgg,4,354,NaN,bicycle,bicycle,0.05,4194_nse_dnn_0.05_bicycle_10_n03792782_10395.JPEG
vgg,4,355,NaN,bicycle,bicycle,0.05,4195_nse_dnn_0.05_bicycle_10_n03792782_11609.JPEG
vgg,4,356,NaN,bicycle,bicycle,0.05,4196_nse_dnn_0.05_bicycle_10_n03792782_8143.JPEG
vgg,4,357,NaN,bicycle,bicycle,0.05,4197_nse_dnn_0.05_bicycle_10_n03792782_18343.JPEG
vgg,4,358,NaN,bicycle,bicycle,0.05,4198_nse_dnn_0.05_bicycle_10_n02835271_419.JPEG
vgg,4,359,NaN,bicycle,bicycle,0.05,4199_nse_dnn_0.05_bicycle_10_n02835271_6278.JPEG
vgg,4,360,NaN,bicycle,bicycle,0.05,4200_nse_dnn_0.05_bicycle_10_n02835271_9669.JPEG
vgg,4,361,NaN,airplane,airplane,0.05,4201_nse_dnn_0.05_airplane_10_n02690373_764.JPEG
vgg,4,362,NaN,airplane,airplane,0.05,4202_nse_dnn_0.05_airplane_10_n02690373_4410.JPEG
vgg,4,363,NaN,truck,airplane,0.05,4203_nse_dnn_0.05_airplane_10_n02690373_6332.JPEG
vgg,4,364,NaN,airplane,airplane,0.05,4204_nse_dnn_0.05_airplane_10_n02690373_8804.JPEG
vgg,4,365,NaN,boat,airplane,0.05,4205_nse_dnn_0.05_airplane_10_n02690373_763.JPEG
vgg,4,366,NaN,bird,airplane,0.05,4206_nse_dnn_0.05_airplane_10_n02690373_4107.JPEG
vgg,4,367,NaN,boat,airplane,0.05,4207_nse_dnn_0.05_airplane_10_n02690373_5838.JPEG
vgg,4,368,NaN,airplane,airplane,0.05,4208_nse_dnn_0.05_airplane_10_n02690373_9959.JPEG
vgg,4,369,NaN,boat,airplane,0.05,4209_nse_dnn_0.05_airplane_10_n02690373_4282.JPEG
vgg,4,370,NaN,airplane,airplane,0.05,4210_nse_dnn_0.05_airplane_10_n02690373_5422.JPEG
vgg,4,371,NaN,clock,clock,0.05,4211_nse_dnn_0.05_clock_10_n04548280_6388.JPEG
vgg,4,372,NaN,clock,clock,0.05,4212_nse_dnn_0.05_clock_10_n03196217_9069.JPEG
vgg,4,373,NaN,clock,clock,0.05,4213_nse_dnn_0.05_clock_10_n04548280_77.JPEG
vgg,4,374,NaN,truck,clock,0.05,4214_nse_dnn_0.05_clock_10_n03196217_1404.JPEG
vgg,4,375,NaN,clock,clock,0.05,4215_nse_dnn_0.05_clock_10_n04548280_4839.JPEG
vgg,4,376,NaN,clock,clock,0.05,4216_nse_dnn_0.05_clock_10_n02708093_2622.JPEG
vgg,4,377,NaN,clock,clock,0.05,4217_nse_dnn_0.05_clock_10_n04548280_4248.JPEG
vgg,4,378,NaN,clock,clock,0.05,4218_nse_dnn_0.05_clock_10_n04548280_494.JPEG
vgg,4,379,NaN,clock,clock,0.05,4219_nse_dnn_0.05_clock_10_n03196217_2009.JPEG
vgg,4,380,NaN,clock,clock,0.05,4220_nse_dnn_0.05_clock_10_n03196217_9343.JPEG
vgg,4,381,NaN,oven,oven,0.05,4221_nse_dnn_0.05_oven_10_n04111531_4951.JPEG
vgg,4,382,NaN,oven,oven,0.05,4222_nse_dnn_0.05_oven_10_n04111531_458.JPEG
vgg,4,383,NaN,chair,oven,0.05,4223_nse_dnn_0.05_oven_10_n04111531_10220.JPEG
vgg,4,384,NaN,truck,oven,0.05,4224_nse_dnn_0.05_oven_10_n04111531_15582.JPEG
vgg,4,385,NaN,chair,oven,0.05,4225_nse_dnn_0.05_oven_10_n04111531_13101.JPEG
vgg,4,386,NaN,dog,oven,0.05,4226_nse_dnn_0.05_oven_10_n04111531_6084.JPEG
vgg,4,387,NaN,truck,oven,0.05,4227_nse_dnn_0.05_oven_10_n04111531_14913.JPEG
vgg,4,388,NaN,knife,oven,0.05,4228_nse_dnn_0.05_oven_10_n04111531_5126.JPEG
vgg,4,389,NaN,bottle,oven,0.05,4229_nse_dnn_0.05_oven_10_n04111531_1330.JPEG
vgg,4,390,NaN,oven,oven,0.05,4230_nse_dnn_0.05_oven_10_n04111531_2433.JPEG
vgg,4,391,NaN,chair,chair,0.05,4231_nse_dnn_0.05_chair_10_n03376595_9753.JPEG
vgg,4,392,NaN,chair,chair,0.05,4232_nse_dnn_0.05_chair_10_n02791124_15902.JPEG
vgg,4,393,NaN,chair,chair,0.05,4233_nse_dnn_0.05_chair_10_n04099969_15848.JPEG
vgg,4,394,NaN,chair,chair,0.05,4234_nse_dnn_0.05_chair_10_n04099969_22201.JPEG
vgg,4,395,NaN,chair,chair,0.05,4235_nse_dnn_0.05_chair_10_n03376595_2345.JPEG
vgg,4,396,NaN,chair,chair,0.05,4236_nse_dnn_0.05_chair_10_n02791124_4172.JPEG
vgg,4,397,NaN,chair,chair,0.05,4237_nse_dnn_0.05_chair_10_n04429376_8224.JPEG
vgg,4,398,NaN,chair,chair,0.05,4238_nse_dnn_0.05_chair_10_n02791124_1291.JPEG
vgg,4,399,NaN,chair,chair,0.05,4239_nse_dnn_0.05_chair_10_n03376595_2931.JPEG
vgg,4,400,NaN,chair,chair,0.05,4240_nse_dnn_0.05_chair_10_n04429376_55163.JPEG
vgg,4,401,NaN,bear,bear,0.05,4241_nse_dnn_0.05_bear_10_n02134418_223.JPEG
vgg,4,402,NaN,dog,bear,0.05,4242_nse_dnn_0.05_bear_10_n02134418_5491.JPEG
vgg,4,403,NaN,clock,bear,0.05,4243_nse_dnn_0.05_bear_10_n02134084_33007.JPEG
vgg,4,404,NaN,bear,bear,0.05,4244_nse_dnn_0.05_bear_10_n02134084_6817.JPEG
vgg,4,405,NaN,knife,bear,0.05,4245_nse_dnn_0.05_bear_10_n02133161_3580.JPEG
vgg,4,406,NaN,dog,bear,0.05,4246_nse_dnn_0.05_bear_10_n02134418_5120.JPEG
vgg,4,407,NaN,bear,bear,0.05,4247_nse_dnn_0.05_bear_10_n02133161_8856.JPEG
vgg,4,408,NaN,bear,bear,0.05,4248_nse_dnn_0.05_bear_10_n02133161_1707.JPEG
vgg,4,409,NaN,bear,bear,0.05,4249_nse_dnn_0.05_bear_10_n02133161_3527.JPEG
vgg,4,410,NaN,bear,bear,0.05,4250_nse_dnn_0.05_bear_10_n02133161_2175.JPEG
vgg,4,411,NaN,boat,boat,0.05,4251_nse_dnn_0.05_boat_10_n02951358_31813.JPEG
vgg,4,412,NaN,boat,boat,0.05,4252_nse_dnn_0.05_boat_10_n02951358_31470.JPEG
vgg,4,413,NaN,boat,boat,0.05,4253_nse_dnn_0.05_boat_10_n03344393_2412.JPEG
vgg,4,414,NaN,boat,boat,0.05,4254_nse_dnn_0.05_boat_10_n02951358_11706.JPEG
vgg,4,415,NaN,boat,boat,0.05,4255_nse_dnn_0.05_boat_10_n03344393_7921.JPEG
vgg,4,416,NaN,boat,boat,0.05,4256_nse_dnn_0.05_boat_10_n02951358_14366.JPEG
vgg,4,417,NaN,boat,boat,0.05,4257_nse_dnn_0.05_boat_10_n02951358_12433.JPEG
vgg,4,418,NaN,boat,boat,0.05,4258_nse_dnn_0.05_boat_10_n02951358_14816.JPEG
vgg,4,419,NaN,boat,boat,0.05,4259_nse_dnn_0.05_boat_10_n02951358_8840.JPEG
vgg,4,420,NaN,boat,boat,0.05,4260_nse_dnn_0.05_boat_10_n02951358_17438.JPEG
vgg,4,421,NaN,cat,cat,0.05,4261_nse_dnn_0.05_cat_10_n02125311_34814.JPEG
vgg,4,422,NaN,cat,cat,0.05,4262_nse_dnn_0.05_cat_10_n02125311_16701.JPEG
vgg,4,423,NaN,cat,cat,0.05,4263_nse_dnn_0.05_cat_10_n02123159_6064.JPEG
vgg,4,424,NaN,dog,cat,0.05,4264_nse_dnn_0.05_cat_10_n02123159_5652.JPEG
vgg,4,425,NaN,cat,cat,0.05,4265_nse_dnn_0.05_cat_10_n02123394_3100.JPEG
vgg,4,426,NaN,cat,cat,0.05,4266_nse_dnn_0.05_cat_10_n02125311_12734.JPEG
vgg,4,427,NaN,cat,cat,0.05,4267_nse_dnn_0.05_cat_10_n02123159_474.JPEG
vgg,4,428,NaN,cat,cat,0.05,4268_nse_dnn_0.05_cat_10_n02123597_13994.JPEG
vgg,4,429,NaN,cat,cat,0.05,4269_nse_dnn_0.05_cat_10_n02123159_14972.JPEG
vgg,4,430,NaN,cat,cat,0.05,4270_nse_dnn_0.05_cat_10_n02123159_1879.JPEG
vgg,4,431,NaN,dog,bottle,0.05,4271_nse_dnn_0.05_bottle_10_n04557648_3385.JPEG
vgg,4,432,NaN,bottle,bottle,0.05,4272_nse_dnn_0.05_bottle_10_n03983396_14652.JPEG
vgg,4,433,NaN,bottle,bottle,0.05,4273_nse_dnn_0.05_bottle_10_n04557648_15027.JPEG
vgg,4,434,NaN,bottle,bottle,0.05,4274_nse_dnn_0.05_bottle_10_n04579145_984.JPEG
vgg,4,435,NaN,bottle,bottle,0.05,4275_nse_dnn_0.05_bottle_10_n03983396_2883.JPEG
vgg,4,436,NaN,clock,bottle,0.05,4276_nse_dnn_0.05_bottle_10_n04557648_9744.JPEG
vgg,4,437,NaN,bottle,bottle,0.05,4277_nse_dnn_0.05_bottle_10_n04591713_3839.JPEG
vgg,4,438,NaN,bottle,bottle,0.05,4278_nse_dnn_0.05_bottle_10_n04557648_7809.JPEG
vgg,4,439,NaN,dog,bottle,0.05,4279_nse_dnn_0.05_bottle_10_n03983396_845.JPEG
vgg,4,440,NaN,bottle,bottle,0.05,4280_nse_dnn_0.05_bottle_10_n04579145_2507.JPEG
vgg,4,441,NaN,truck,truck,0.05,4281_nse_dnn_0.05_truck_10_n03417042_12790.JPEG
vgg,4,442,NaN,truck,truck,0.05,4282_nse_dnn_0.05_truck_10_n03796401_6142.JPEG
vgg,4,443,NaN,truck,truck,0.05,4283_nse_dnn_0.05_truck_10_n03796401_9601.JPEG
vgg,4,444,NaN,truck,truck,0.05,4284_nse_dnn_0.05_truck_10_n03796401_6644.JPEG
vgg,4,445,NaN,truck,truck,0.05,4285_nse_dnn_0.05_truck_10_n03796401_8254.JPEG
vgg,4,446,NaN,truck,truck,0.05,4286_nse_dnn_0.05_truck_10_n03417042_15198.JPEG
vgg,4,447,NaN,truck,truck,0.05,4287_nse_dnn_0.05_truck_10_n03417042_6034.JPEG
vgg,4,448,NaN,truck,truck,0.05,4288_nse_dnn_0.05_truck_10_n04467665_67057.JPEG
vgg,4,449,NaN,truck,truck,0.05,4289_nse_dnn_0.05_truck_10_n04467665_22573.JPEG
vgg,4,450,NaN,truck,truck,0.05,4290_nse_dnn_0.05_truck_10_n03417042_10283.JPEG
vgg,4,451,NaN,truck,car,0.05,4291_nse_dnn_0.05_car_10_n03100240_8351.JPEG
vgg,4,452,NaN,car,car,0.05,4292_nse_dnn_0.05_car_10_n02814533_98174.JPEG
vgg,4,453,NaN,car,car,0.05,4293_nse_dnn_0.05_car_10_n03100240_5291.JPEG
vgg,4,454,NaN,car,car,0.05,4294_nse_dnn_0.05_car_10_n02814533_89061.JPEG
vgg,4,455,NaN,car,car,0.05,4295_nse_dnn_0.05_car_10_n02814533_19312.JPEG
vgg,4,456,NaN,car,car,0.05,4296_nse_dnn_0.05_car_10_n03100240_12605.JPEG
vgg,4,457,NaN,car,car,0.05,4297_nse_dnn_0.05_car_10_n04285008_12289.JPEG
vgg,4,458,NaN,truck,car,0.05,4298_nse_dnn_0.05_car_10_n02814533_62199.JPEG
vgg,4,459,NaN,truck,car,0.05,4299_nse_dnn_0.05_car_10_n04285008_7870.JPEG
vgg,4,460,NaN,car,car,0.05,4300_nse_dnn_0.05_car_10_n03100240_16739.JPEG
vgg,4,461,NaN,bear,bird,0.05,4301_nse_dnn_0.05_bird_10_n01820546_3594.JPEG
vgg,4,462,NaN,dog,bird,0.05,4302_nse_dnn_0.05_bird_10_n01843383_7044.JPEG
vgg,4,463,NaN,bird,bird,0.05,4303_nse_dnn_0.05_bird_10_n01855672_4396.JPEG
vgg,4,464,NaN,bird,bird,0.05,4304_nse_dnn_0.05_bird_10_n02011460_3761.JPEG
vgg,4,465,NaN,bird,bird,0.05,4305_nse_dnn_0.05_bird_10_n01833805_9948.JPEG
vgg,4,466,NaN,cat,bird,0.05,4306_nse_dnn_0.05_bird_10_n02011460_2497.JPEG
vgg,4,467,NaN,bird,bird,0.05,4307_nse_dnn_0.05_bird_10_n01616318_3613.JPEG
vgg,4,468,NaN,dog,bird,0.05,4308_nse_dnn_0.05_bird_10_n01795545_5946.JPEG
vgg,4,469,NaN,bird,bird,0.05,4309_nse_dnn_0.05_bird_10_n01819313_34.JPEG
vgg,4,470,NaN,bird,bird,0.05,4310_nse_dnn_0.05_bird_10_n01531178_6516.JPEG
vgg,4,471,NaN,dog,dog,0.05,4311_nse_dnn_0.05_dog_10_n02088632_747.JPEG
vgg,4,472,NaN,dog,dog,0.05,4312_nse_dnn_0.05_dog_10_n02113799_8691.JPEG
vgg,4,473,NaN,dog,dog,0.05,4313_nse_dnn_0.05_dog_10_n02112706_5025.JPEG
vgg,4,474,NaN,dog,dog,0.05,4314_nse_dnn_0.05_dog_10_n02092002_6827.JPEG
vgg,4,475,NaN,dog,dog,0.05,4315_nse_dnn_0.05_dog_10_n02113624_3574.JPEG
vgg,4,476,NaN,dog,dog,0.05,4316_nse_dnn_0.05_dog_10_n02106166_57.JPEG
vgg,4,477,NaN,chair,dog,0.05,4317_nse_dnn_0.05_dog_10_n02088094_5437.JPEG
vgg,4,478,NaN,dog,dog,0.05,4318_nse_dnn_0.05_dog_10_n02109525_5700.JPEG
vgg,4,479,NaN,dog,dog,0.05,4319_nse_dnn_0.05_dog_10_n02111129_2363.JPEG
vgg,4,480,NaN,dog,dog,0.05,4320_nse_dnn_0.05_dog_10_n02113712_19820.JPEG
vgg,4,481,NaN,truck,knife,0.10,4321_nse_dnn_0.10_knife_10_n03041632_4590.JPEG
vgg,4,482,NaN,bottle,knife,0.10,4322_nse_dnn_0.10_knife_10_n03041632_24100.JPEG
vgg,4,483,NaN,dog,knife,0.10,4323_nse_dnn_0.10_knife_10_n03041632_29886.JPEG
vgg,4,484,NaN,boat,knife,0.10,4324_nse_dnn_0.10_knife_10_n03041632_3063.JPEG
vgg,4,485,NaN,clock,knife,0.10,4325_nse_dnn_0.10_knife_10_n03041632_39836.JPEG
vgg,4,486,NaN,bottle,knife,0.10,4326_nse_dnn_0.10_knife_10_n03041632_4787.JPEG
vgg,4,487,NaN,clock,knife,0.10,4327_nse_dnn_0.10_knife_10_n03041632_2319.JPEG
vgg,4,488,NaN,knife,knife,0.10,4328_nse_dnn_0.10_knife_10_n03041632_7448.JPEG
vgg,4,489,NaN,knife,knife,0.10,4329_nse_dnn_0.10_knife_10_n03041632_40887.JPEG
vgg,4,490,NaN,clock,knife,0.10,4330_nse_dnn_0.10_knife_10_n03041632_35260.JPEG
vgg,4,491,NaN,keyboard,keyboard,0.10,4331_nse_dnn_0.10_keyboard_10_n04505470_709.JPEG
vgg,4,492,NaN,keyboard,keyboard,0.10,4332_nse_dnn_0.10_keyboard_10_n03085013_24363.JPEG
vgg,4,493,NaN,chair,keyboard,0.10,4333_nse_dnn_0.10_keyboard_10_n03085013_24206.JPEG
vgg,4,494,NaN,knife,keyboard,0.10,4334_nse_dnn_0.10_keyboard_10_n04505470_10023.JPEG
vgg,4,495,NaN,keyboard,keyboard,0.10,4335_nse_dnn_0.10_keyboard_10_n04505470_4723.JPEG
vgg,4,496,NaN,truck,keyboard,0.10,4336_nse_dnn_0.10_keyboard_10_n04505470_4748.JPEG
vgg,4,497,NaN,keyboard,keyboard,0.10,4337_nse_dnn_0.10_keyboard_10_n04505470_4528.JPEG
vgg,4,498,NaN,dog,keyboard,0.10,4338_nse_dnn_0.10_keyboard_10_n03085013_6828.JPEG
vgg,4,499,NaN,keyboard,keyboard,0.10,4339_nse_dnn_0.10_keyboard_10_n03085013_20881.JPEG
vgg,4,500,NaN,keyboard,keyboard,0.10,4340_nse_dnn_0.10_keyboard_10_n03085013_24360.JPEG
vgg,4,501,NaN,elephant,elephant,0.10,4341_nse_dnn_0.10_elephant_10_n02504458_3491.JPEG
vgg,4,502,NaN,elephant,elephant,0.10,4342_nse_dnn_0.10_elephant_10_n02504458_8226.JPEG
vgg,4,503,NaN,bird,elephant,0.10,4343_nse_dnn_0.10_elephant_10_n02504013_2052.JPEG
vgg,4,504,NaN,clock,elephant,0.10,4344_nse_dnn_0.10_elephant_10_n02504013_4762.JPEG
vgg,4,505,NaN,dog,elephant,0.10,4345_nse_dnn_0.10_elephant_10_n02504013_7210.JPEG
vgg,4,506,NaN,elephant,elephant,0.10,4346_nse_dnn_0.10_elephant_10_n02504458_1092.JPEG
vgg,4,507,NaN,dog,elephant,0.10,4347_nse_dnn_0.10_elephant_10_n02504458_4345.JPEG
vgg,4,508,NaN,cat,elephant,0.10,4348_nse_dnn_0.10_elephant_10_n02504458_1473.JPEG
vgg,4,509,NaN,bird,elephant,0.10,4349_nse_dnn_0.10_elephant_10_n02504013_7368.JPEG
vgg,4,510,NaN,elephant,elephant,0.10,4350_nse_dnn_0.10_elephant_10_n02504458_4864.JPEG
vgg,4,511,NaN,bicycle,bicycle,0.10,4351_nse_dnn_0.10_bicycle_10_n02835271_9416.JPEG
vgg,4,512,NaN,clock,bicycle,0.10,4352_nse_dnn_0.10_bicycle_10_n02835271_25718.JPEG
vgg,4,513,NaN,bicycle,bicycle,0.10,4353_nse_dnn_0.10_bicycle_10_n03792782_12578.JPEG
vgg,4,514,NaN,clock,bicycle,0.10,4354_nse_dnn_0.10_bicycle_10_n03792782_2701.JPEG
vgg,4,515,NaN,bicycle,bicycle,0.10,4355_nse_dnn_0.10_bicycle_10_n03792782_41097.JPEG
vgg,4,516,NaN,clock,bicycle,0.10,4356_nse_dnn_0.10_bicycle_10_n03792782_7008.JPEG
vgg,4,517,NaN,bicycle,bicycle,0.10,4357_nse_dnn_0.10_bicycle_10_n02835271_6266.JPEG
vgg,4,518,NaN,bicycle,bicycle,0.10,4358_nse_dnn_0.10_bicycle_10_n03792782_1831.JPEG
vgg,4,519,NaN,bicycle,bicycle,0.10,4359_nse_dnn_0.10_bicycle_10_n03792782_14476.JPEG
vgg,4,520,NaN,dog,bicycle,0.10,4360_nse_dnn_0.10_bicycle_10_n03792782_23334.JPEG
vgg,4,521,NaN,clock,airplane,0.10,4361_nse_dnn_0.10_airplane_10_n02690373_1589.JPEG
vgg,4,522,NaN,airplane,airplane,0.10,4362_nse_dnn_0.10_airplane_10_n02690373_6682.JPEG
vgg,4,523,NaN,boat,airplane,0.10,4363_nse_dnn_0.10_airplane_10_n02690373_6210.JPEG
vgg,4,524,NaN,airplane,airplane,0.10,4364_nse_dnn_0.10_airplane_10_n02690373_610.JPEG
vgg,4,525,NaN,dog,airplane,0.10,4365_nse_dnn_0.10_airplane_10_n02690373_6336.JPEG
vgg,4,526,NaN,airplane,airplane,0.10,4366_nse_dnn_0.10_airplane_10_n02690373_7748.JPEG
vgg,4,527,NaN,dog,airplane,0.10,4367_nse_dnn_0.10_airplane_10_n02690373_10001.JPEG
vgg,4,528,NaN,airplane,airplane,0.10,4368_nse_dnn_0.10_airplane_10_n02690373_4649.JPEG
vgg,4,529,NaN,boat,airplane,0.10,4369_nse_dnn_0.10_airplane_10_n02690373_19666.JPEG
vgg,4,530,NaN,airplane,airplane,0.10,4370_nse_dnn_0.10_airplane_10_n02690373_4671.JPEG
vgg,4,531,NaN,clock,clock,0.10,4371_nse_dnn_0.10_clock_10_n03196217_559.JPEG
vgg,4,532,NaN,bottle,clock,0.10,4372_nse_dnn_0.10_clock_10_n04548280_3352.JPEG
vgg,4,533,NaN,clock,clock,0.10,4373_nse_dnn_0.10_clock_10_n04548280_702.JPEG
vgg,4,534,NaN,clock,clock,0.10,4374_nse_dnn_0.10_clock_10_n02708093_320.JPEG
vgg,4,535,NaN,clock,clock,0.10,4375_nse_dnn_0.10_clock_10_n04548280_132.JPEG
vgg,4,536,NaN,clock,clock,0.10,4376_nse_dnn_0.10_clock_10_n04548280_7951.JPEG
vgg,4,537,NaN,clock,clock,0.10,4377_nse_dnn_0.10_clock_10_n04548280_11763.JPEG
vgg,4,538,NaN,clock,clock,0.10,4378_nse_dnn_0.10_clock_10_n04548280_8649.JPEG
vgg,4,539,NaN,clock,clock,0.10,4379_nse_dnn_0.10_clock_10_n03196217_10424.JPEG
vgg,4,540,NaN,clock,clock,0.10,4380_nse_dnn_0.10_clock_10_n02708093_464.JPEG
vgg,4,541,NaN,bottle,oven,0.10,4381_nse_dnn_0.10_oven_10_n04111531_6958.JPEG
vgg,4,542,NaN,truck,oven,0.10,4382_nse_dnn_0.10_oven_10_n04111531_12161.JPEG
vgg,4,543,NaN,oven,oven,0.10,4383_nse_dnn_0.10_oven_10_n04111531_8793.JPEG
vgg,4,544,NaN,dog,oven,0.10,4384_nse_dnn_0.10_oven_10_n04111531_1770.JPEG
vgg,4,545,NaN,clock,oven,0.10,4385_nse_dnn_0.10_oven_10_n04111531_505.JPEG
vgg,4,546,NaN,dog,oven,0.10,4386_nse_dnn_0.10_oven_10_n04111531_10436.JPEG
vgg,4,547,NaN,clock,oven,0.10,4387_nse_dnn_0.10_oven_10_n04111531_1054.JPEG
vgg,4,548,NaN,dog,oven,0.10,4388_nse_dnn_0.10_oven_10_n04111531_23264.JPEG
vgg,4,549,NaN,clock,oven,0.10,4389_nse_dnn_0.10_oven_10_n04111531_13479.JPEG
vgg,4,550,NaN,oven,oven,0.10,4390_nse_dnn_0.10_oven_10_n04111531_6400.JPEG
vgg,4,551,NaN,clock,chair,0.10,4391_nse_dnn_0.10_chair_10_n02791124_14039.JPEG
vgg,4,552,NaN,chair,chair,0.10,4392_nse_dnn_0.10_chair_10_n02791124_381.JPEG
vgg,4,553,NaN,chair,chair,0.10,4393_nse_dnn_0.10_chair_10_n03376595_3279.JPEG
vgg,4,554,NaN,clock,chair,0.10,4394_nse_dnn_0.10_chair_10_n04429376_9039.JPEG
vgg,4,555,NaN,clock,chair,0.10,4395_nse_dnn_0.10_chair_10_n04099969_35740.JPEG
vgg,4,556,NaN,chair,chair,0.10,4396_nse_dnn_0.10_chair_10_n03376595_4248.JPEG
vgg,4,557,NaN,dog,chair,0.10,4397_nse_dnn_0.10_chair_10_n02791124_6865.JPEG
vgg,4,558,NaN,chair,chair,0.10,4398_nse_dnn_0.10_chair_10_n03376595_8702.JPEG
vgg,4,559,NaN,truck,chair,0.10,4399_nse_dnn_0.10_chair_10_n04429376_18664.JPEG
vgg,4,560,NaN,chair,chair,0.10,4400_nse_dnn_0.10_chair_10_n04099969_5740.JPEG
vgg,4,561,NaN,dog,bear,0.10,4401_nse_dnn_0.10_bear_10_n02133161_6322.JPEG
vgg,4,562,NaN,dog,bear,0.10,4402_nse_dnn_0.10_bear_10_n02134084_6807.JPEG
vgg,4,563,NaN,dog,bear,0.10,4403_nse_dnn_0.10_bear_10_n02133161_12868.JPEG
vgg,4,564,NaN,dog,bear,0.10,4404_nse_dnn_0.10_bear_10_n02134418_3512.JPEG
vgg,4,565,NaN,bear,bear,0.10,4405_nse_dnn_0.10_bear_10_n02134084_9659.JPEG
vgg,4,566,NaN,dog,bear,0.10,4406_nse_dnn_0.10_bear_10_n02133161_11796.JPEG
vgg,4,567,NaN,dog,bear,0.10,4407_nse_dnn_0.10_bear_10_n02134418_2545.JPEG
vgg,4,568,NaN,dog,bear,0.10,4408_nse_dnn_0.10_bear_10_n02133161_10715.JPEG
vgg,4,569,NaN,dog,bear,0.10,4409_nse_dnn_0.10_bear_10_n02133161_3622.JPEG
vgg,4,570,NaN,dog,bear,0.10,4410_nse_dnn_0.10_bear_10_n02134084_1689.JPEG
vgg,4,571,NaN,dog,boat,0.10,4411_nse_dnn_0.10_boat_10_n02951358_2776.JPEG
vgg,4,572,NaN,boat,boat,0.10,4412_nse_dnn_0.10_boat_10_n04612504_1224.JPEG
vgg,4,573,NaN,boat,boat,0.10,4413_nse_dnn_0.10_boat_10_n04612504_9360.JPEG
vgg,4,574,NaN,boat,boat,0.10,4414_nse_dnn_0.10_boat_10_n03662601_21412.JPEG
vgg,4,575,NaN,dog,boat,0.10,4415_nse_dnn_0.10_boat_10_n03662601_7270.JPEG
vgg,4,576,NaN,clock,boat,0.10,4416_nse_dnn_0.10_boat_10_n03344393_5833.JPEG
vgg,4,577,NaN,boat,boat,0.10,4417_nse_dnn_0.10_boat_10_n03662601_5160.JPEG
vgg,4,578,NaN,dog,boat,0.10,4418_nse_dnn_0.10_boat_10_n03344393_402.JPEG
vgg,4,579,NaN,boat,boat,0.10,4419_nse_dnn_0.10_boat_10_n04612504_34200.JPEG
vgg,4,580,NaN,boat,boat,0.10,4420_nse_dnn_0.10_boat_10_n03662601_9602.JPEG
vgg,4,581,NaN,cat,cat,0.10,4421_nse_dnn_0.10_cat_10_n02123159_6846.JPEG
vgg,4,582,NaN,cat,cat,0.10,4422_nse_dnn_0.10_cat_10_n02123159_2888.JPEG
vgg,4,583,NaN,dog,cat,0.10,4423_nse_dnn_0.10_cat_10_n02123045_8579.JPEG
vgg,4,584,NaN,dog,cat,0.10,4424_nse_dnn_0.10_cat_10_n02125311_7988.JPEG
vgg,4,585,NaN,dog,cat,0.10,4425_nse_dnn_0.10_cat_10_n02123045_2777.JPEG
vgg,4,586,NaN,cat,cat,0.10,4426_nse_dnn_0.10_cat_10_n02123597_4459.JPEG
vgg,4,587,NaN,dog,cat,0.10,4427_nse_dnn_0.10_cat_10_n02123045_4314.JPEG
vgg,4,588,NaN,truck,cat,0.10,4428_nse_dnn_0.10_cat_10_n02125311_44119.JPEG
vgg,4,589,NaN,dog,cat,0.10,4429_nse_dnn_0.10_cat_10_n02124075_6093.JPEG
vgg,4,590,NaN,cat,cat,0.10,4430_nse_dnn_0.10_cat_10_n02124075_2643.JPEG
vgg,4,591,NaN,bottle,bottle,0.10,4431_nse_dnn_0.10_bottle_10_n04560804_173.JPEG
vgg,4,592,NaN,clock,bottle,0.10,4432_nse_dnn_0.10_bottle_10_n04591713_7959.JPEG
vgg,4,593,NaN,cat,bottle,0.10,4433_nse_dnn_0.10_bottle_10_n03937543_5377.JPEG
vgg,4,594,NaN,clock,bottle,0.10,4434_nse_dnn_0.10_bottle_10_n04579145_110.JPEG
vgg,4,595,NaN,bottle,bottle,0.10,4435_nse_dnn_0.10_bottle_10_n04591713_1660.JPEG
vgg,4,596,NaN,dog,bottle,0.10,4436_nse_dnn_0.10_bottle_10_n04557648_1133.JPEG
vgg,4,597,NaN,bottle,bottle,0.10,4437_nse_dnn_0.10_bottle_10_n03983396_1864.JPEG
vgg,4,598,NaN,dog,bottle,0.10,4438_nse_dnn_0.10_bottle_10_n04557648_3401.JPEG
vgg,4,599,NaN,bottle,bottle,0.10,4439_nse_dnn_0.10_bottle_10_n04591713_4035.JPEG
vgg,4,600,NaN,dog,bottle,0.10,4440_nse_dnn_0.10_bottle_10_n03937543_7894.JPEG
vgg,4,601,NaN,truck,truck,0.10,4441_nse_dnn_0.10_truck_10_n03796401_10612.JPEG
vgg,4,602,NaN,truck,truck,0.10,4442_nse_dnn_0.10_truck_10_n03417042_15196.JPEG
vgg,4,603,NaN,truck,truck,0.10,4443_nse_dnn_0.10_truck_10_n03417042_16737.JPEG
vgg,4,604,NaN,boat,truck,0.10,4444_nse_dnn_0.10_truck_10_n03796401_15673.JPEG
vgg,4,605,NaN,truck,truck,0.10,4445_nse_dnn_0.10_truck_10_n03417042_20962.JPEG
vgg,4,606,NaN,truck,truck,0.10,4446_nse_dnn_0.10_truck_10_n03417042_15482.JPEG
vgg,4,607,NaN,chair,truck,0.10,4447_nse_dnn_0.10_truck_10_n04467665_3720.JPEG
vgg,4,608,NaN,clock,truck,0.10,4448_nse_dnn_0.10_truck_10_n03417042_1029.JPEG
vgg,4,609,NaN,truck,truck,0.10,4449_nse_dnn_0.10_truck_10_n03417042_27017.JPEG
vgg,4,610,NaN,truck,truck,0.10,4450_nse_dnn_0.10_truck_10_n03796401_7261.JPEG
vgg,4,611,NaN,boat,car,0.10,4451_nse_dnn_0.10_car_10_n04285008_1785.JPEG
vgg,4,612,NaN,truck,car,0.10,4452_nse_dnn_0.10_car_10_n02814533_874.JPEG
vgg,4,613,NaN,boat,car,0.10,4453_nse_dnn_0.10_car_10_n02814533_14438.JPEG
vgg,4,614,NaN,car,car,0.10,4454_nse_dnn_0.10_car_10_n02814533_94686.JPEG
vgg,4,615,NaN,truck,car,0.10,4455_nse_dnn_0.10_car_10_n03100240_21821.JPEG
vgg,4,616,NaN,chair,car,0.10,4456_nse_dnn_0.10_car_10_n03100240_9454.JPEG
vgg,4,617,NaN,car,car,0.10,4457_nse_dnn_0.10_car_10_n02814533_24244.JPEG
vgg,4,618,NaN,truck,car,0.10,4458_nse_dnn_0.10_car_10_n03100240_5957.JPEG
vgg,4,619,NaN,truck,car,0.10,4459_nse_dnn_0.10_car_10_n02814533_41569.JPEG
vgg,4,620,NaN,clock,car,0.10,4460_nse_dnn_0.10_car_10_n04285008_6410.JPEG
vgg,4,621,NaN,bird,bird,0.10,4461_nse_dnn_0.10_bird_10_n01843383_9985.JPEG
vgg,4,622,NaN,cat,bird,0.10,4462_nse_dnn_0.10_bird_10_n01798484_23595.JPEG
vgg,4,623,NaN,bicycle,bird,0.10,4463_nse_dnn_0.10_bird_10_n01843383_3565.JPEG
vgg,4,624,NaN,bird,bird,0.10,4464_nse_dnn_0.10_bird_10_n01560419_5063.JPEG
vgg,4,625,NaN,bird,bird,0.10,4465_nse_dnn_0.10_bird_10_n01833805_2730.JPEG
vgg,4,626,NaN,dog,bird,0.10,4466_nse_dnn_0.10_bird_10_n01829413_7896.JPEG
vgg,4,627,NaN,clock,bird,0.10,4467_nse_dnn_0.10_bird_10_n01582220_1814.JPEG
vgg,4,628,NaN,bird,bird,0.10,4468_nse_dnn_0.10_bird_10_n01558993_5607.JPEG
vgg,4,629,NaN,boat,bird,0.10,4469_nse_dnn_0.10_bird_10_n01796340_12212.JPEG
vgg,4,630,NaN,bird,bird,0.10,4470_nse_dnn_0.10_bird_10_n01616318_5712.JPEG
vgg,4,631,NaN,dog,dog,0.10,4471_nse_dnn_0.10_dog_10_n02088238_11696.JPEG
vgg,4,632,NaN,dog,dog,0.10,4472_nse_dnn_0.10_dog_10_n02108422_844.JPEG
vgg,4,633,NaN,dog,dog,0.10,4473_nse_dnn_0.10_dog_10_n02113799_2693.JPEG
vgg,4,634,NaN,dog,dog,0.10,4474_nse_dnn_0.10_dog_10_n02105251_5953.JPEG
vgg,4,635,NaN,dog,dog,0.10,4475_nse_dnn_0.10_dog_10_n02095570_701.JPEG
vgg,4,636,NaN,dog,dog,0.10,4476_nse_dnn_0.10_dog_10_n02101556_11598.JPEG
vgg,4,637,NaN,dog,dog,0.10,4477_nse_dnn_0.10_dog_10_n02101556_11681.JPEG
vgg,4,638,NaN,dog,dog,0.10,4478_nse_dnn_0.10_dog_10_n02107908_8171.JPEG
vgg,4,639,NaN,dog,dog,0.10,4479_nse_dnn_0.10_dog_10_n02105641_7948.JPEG
vgg,4,640,NaN,dog,dog,0.10,4480_nse_dnn_0.10_dog_10_n02107312_5281.JPEG
vgg,4,641,NaN,bottle,knife,0.20,4481_nse_dnn_0.20_knife_10_n03041632_33424.JPEG
vgg,4,642,NaN,dog,knife,0.20,4482_nse_dnn_0.20_knife_10_n03041632_48071.JPEG
vgg,4,643,NaN,dog,knife,0.20,4483_nse_dnn_0.20_knife_10_n03041632_17859.JPEG
vgg,4,644,NaN,dog,knife,0.20,4484_nse_dnn_0.20_knife_10_n03041632_34769.JPEG
vgg,4,645,NaN,dog,knife,0.20,4485_nse_dnn_0.20_knife_10_n03041632_27879.JPEG
vgg,4,646,NaN,keyboard,knife,0.20,4486_nse_dnn_0.20_knife_10_n03041632_7064.JPEG
vgg,4,647,NaN,clock,knife,0.20,4487_nse_dnn_0.20_knife_10_n03041632_89912.JPEG
vgg,4,648,NaN,chair,knife,0.20,4488_nse_dnn_0.20_knife_10_n03041632_3247.JPEG
vgg,4,649,NaN,knife,knife,0.20,4489_nse_dnn_0.20_knife_10_n03041632_4279.JPEG
vgg,4,650,NaN,clock,knife,0.20,4490_nse_dnn_0.20_knife_10_n03041632_8468.JPEG
vgg,4,651,NaN,bottle,keyboard,0.20,4491_nse_dnn_0.20_keyboard_10_n04505470_4832.JPEG
vgg,4,652,NaN,dog,keyboard,0.20,4492_nse_dnn_0.20_keyboard_10_n04505470_2804.JPEG
vgg,4,653,NaN,clock,keyboard,0.20,4493_nse_dnn_0.20_keyboard_10_n04505470_1288.JPEG
vgg,4,654,NaN,clock,keyboard,0.20,4494_nse_dnn_0.20_keyboard_10_n03085013_25809.JPEG
vgg,4,655,NaN,clock,keyboard,0.20,4495_nse_dnn_0.20_keyboard_10_n04505470_4467.JPEG
vgg,4,656,NaN,dog,keyboard,0.20,4496_nse_dnn_0.20_keyboard_10_n04505470_8544.JPEG
vgg,4,657,NaN,bottle,keyboard,0.20,4497_nse_dnn_0.20_keyboard_10_n03085013_23648.JPEG
vgg,4,658,NaN,cat,keyboard,0.20,4498_nse_dnn_0.20_keyboard_10_n04505470_1453.JPEG
vgg,4,659,NaN,dog,keyboard,0.20,4499_nse_dnn_0.20_keyboard_10_n04505470_169.JPEG
vgg,4,660,NaN,keyboard,keyboard,0.20,4500_nse_dnn_0.20_keyboard_10_n03085013_15484.JPEG
vgg,4,661,NaN,dog,elephant,0.20,4501_nse_dnn_0.20_elephant_10_n02504458_5152.JPEG
vgg,4,662,NaN,dog,elephant,0.20,4502_nse_dnn_0.20_elephant_10_n02504013_4145.JPEG
vgg,4,663,NaN,dog,elephant,0.20,4503_nse_dnn_0.20_elephant_10_n02504013_2980.JPEG
vgg,4,664,NaN,bird,elephant,0.20,4504_nse_dnn_0.20_elephant_10_n02504458_7016.JPEG
vgg,4,665,NaN,dog,elephant,0.20,4505_nse_dnn_0.20_elephant_10_n02504013_2631.JPEG
vgg,4,666,NaN,dog,elephant,0.20,4506_nse_dnn_0.20_elephant_10_n02504458_2030.JPEG
vgg,4,667,NaN,dog,elephant,0.20,4507_nse_dnn_0.20_elephant_10_n02504013_2844.JPEG
vgg,4,668,NaN,dog,elephant,0.20,4508_nse_dnn_0.20_elephant_10_n02504013_7474.JPEG
vgg,4,669,NaN,bird,elephant,0.20,4509_nse_dnn_0.20_elephant_10_n02504013_4508.JPEG
vgg,4,670,NaN,dog,elephant,0.20,4510_nse_dnn_0.20_elephant_10_n02504013_637.JPEG
vgg,4,671,NaN,bird,bicycle,0.20,4511_nse_dnn_0.20_bicycle_10_n03792782_15424.JPEG
vgg,4,672,NaN,dog,bicycle,0.20,4512_nse_dnn_0.20_bicycle_10_n02835271_10764.JPEG
vgg,4,673,NaN,dog,bicycle,0.20,4513_nse_dnn_0.20_bicycle_10_n02835271_2525.JPEG
vgg,4,674,NaN,bird,bicycle,0.20,4514_nse_dnn_0.20_bicycle_10_n03792782_9086.JPEG
vgg,4,675,NaN,clock,bicycle,0.20,4515_nse_dnn_0.20_bicycle_10_n03792782_15898.JPEG
vgg,4,676,NaN,clock,bicycle,0.20,4516_nse_dnn_0.20_bicycle_10_n03792782_66159.JPEG
vgg,4,677,NaN,cat,bicycle,0.20,4517_nse_dnn_0.20_bicycle_10_n03792782_7650.JPEG
vgg,4,678,NaN,dog,bicycle,0.20,4518_nse_dnn_0.20_bicycle_10_n03792782_12096.JPEG
vgg,4,679,NaN,clock,bicycle,0.20,4519_nse_dnn_0.20_bicycle_10_n02835271_15585.JPEG
vgg,4,680,NaN,clock,bicycle,0.20,4520_nse_dnn_0.20_bicycle_10_n02835271_9202.JPEG
vgg,4,681,NaN,clock,airplane,0.20,4521_nse_dnn_0.20_airplane_10_n02690373_6468.JPEG
vgg,4,682,NaN,bird,airplane,0.20,4522_nse_dnn_0.20_airplane_10_n02690373_5845.JPEG
vgg,4,683,NaN,boat,airplane,0.20,4523_nse_dnn_0.20_airplane_10_n02690373_3821.JPEG
vgg,4,684,NaN,cat,airplane,0.20,4524_nse_dnn_0.20_airplane_10_n02690373_4586.JPEG
vgg,4,685,NaN,dog,airplane,0.20,4525_nse_dnn_0.20_airplane_10_n02690373_5197.JPEG
vgg,4,686,NaN,bird,airplane,0.20,4526_nse_dnn_0.20_airplane_10_n02690373_2923.JPEG
vgg,4,687,NaN,clock,airplane,0.20,4527_nse_dnn_0.20_airplane_10_n02690373_3553.JPEG
vgg,4,688,NaN,bird,airplane,0.20,4528_nse_dnn_0.20_airplane_10_n02690373_20996.JPEG
vgg,4,689,NaN,dog,airplane,0.20,4529_nse_dnn_0.20_airplane_10_n02690373_8204.JPEG
vgg,4,690,NaN,boat,airplane,0.20,4530_nse_dnn_0.20_airplane_10_n02690373_4860.JPEG
vgg,4,691,NaN,clock,clock,0.20,4531_nse_dnn_0.20_clock_10_n03196217_4233.JPEG
vgg,4,692,NaN,dog,clock,0.20,4532_nse_dnn_0.20_clock_10_n04548280_4511.JPEG
vgg,4,693,NaN,clock,clock,0.20,4533_nse_dnn_0.20_clock_10_n04548280_9816.JPEG
vgg,4,694,NaN,clock,clock,0.20,4534_nse_dnn_0.20_clock_10_n04548280_5382.JPEG
vgg,4,695,NaN,clock,clock,0.20,4535_nse_dnn_0.20_clock_10_n03196217_10634.JPEG
vgg,4,696,NaN,dog,clock,0.20,4536_nse_dnn_0.20_clock_10_n02708093_2806.JPEG
vgg,4,697,NaN,dog,clock,0.20,4537_nse_dnn_0.20_clock_10_n02708093_774.JPEG
vgg,4,698,NaN,dog,clock,0.20,4538_nse_dnn_0.20_clock_10_n04548280_7568.JPEG
vgg,4,699,NaN,clock,clock,0.20,4539_nse_dnn_0.20_clock_10_n02708093_6597.JPEG
vgg,4,700,NaN,cat,clock,0.20,4540_nse_dnn_0.20_clock_10_n02708093_6591.JPEG
vgg,4,701,NaN,dog,oven,0.20,4541_nse_dnn_0.20_oven_10_n04111531_9314.JPEG
vgg,4,702,NaN,clock,oven,0.20,4542_nse_dnn_0.20_oven_10_n04111531_8144.JPEG
vgg,4,703,NaN,dog,oven,0.20,4543_nse_dnn_0.20_oven_10_n04111531_8009.JPEG
vgg,4,704,NaN,clock,oven,0.20,4544_nse_dnn_0.20_oven_10_n04111531_3976.JPEG
vgg,4,705,NaN,dog,oven,0.20,4545_nse_dnn_0.20_oven_10_n04111531_2770.JPEG
vgg,4,706,NaN,clock,oven,0.20,4546_nse_dnn_0.20_oven_10_n04111531_523.JPEG
vgg,4,707,NaN,dog,oven,0.20,4547_nse_dnn_0.20_oven_10_n04111531_2042.JPEG
vgg,4,708,NaN,clock,oven,0.20,4548_nse_dnn_0.20_oven_10_n04111531_13277.JPEG
vgg,4,709,NaN,dog,oven,0.20,4549_nse_dnn_0.20_oven_10_n04111531_15267.JPEG
vgg,4,710,NaN,cat,oven,0.20,4550_nse_dnn_0.20_oven_10_n04111531_3570.JPEG
vgg,4,711,NaN,dog,chair,0.20,4551_nse_dnn_0.20_chair_10_n02791124_2536.JPEG
vgg,4,712,NaN,clock,chair,0.20,4552_nse_dnn_0.20_chair_10_n04429376_9053.JPEG
vgg,4,713,NaN,dog,chair,0.20,4553_nse_dnn_0.20_chair_10_n04429376_14863.JPEG
vgg,4,714,NaN,cat,chair,0.20,4554_nse_dnn_0.20_chair_10_n03376595_17747.JPEG
vgg,4,715,NaN,bottle,chair,0.20,4555_nse_dnn_0.20_chair_10_n04099969_18182.JPEG
vgg,4,716,NaN,clock,chair,0.20,4556_nse_dnn_0.20_chair_10_n02791124_15778.JPEG
vgg,4,717,NaN,cat,chair,0.20,4557_nse_dnn_0.20_chair_10_n04429376_34588.JPEG
vgg,4,718,NaN,clock,chair,0.20,4558_nse_dnn_0.20_chair_10_n02791124_1258.JPEG
vgg,4,719,NaN,clock,chair,0.20,4559_nse_dnn_0.20_chair_10_n02791124_10521.JPEG
vgg,4,720,NaN,dog,chair,0.20,4560_nse_dnn_0.20_chair_10_n02791124_3857.JPEG
vgg,4,721,NaN,knife,bear,0.20,4561_nse_dnn_0.20_bear_10_n02134084_5079.JPEG
vgg,4,722,NaN,cat,bear,0.20,4562_nse_dnn_0.20_bear_10_n02134084_14260.JPEG
vgg,4,723,NaN,dog,bear,0.20,4563_nse_dnn_0.20_bear_10_n02133161_5712.JPEG
vgg,4,724,NaN,dog,bear,0.20,4564_nse_dnn_0.20_bear_10_n02132136_2771.JPEG
vgg,4,725,NaN,bird,bear,0.20,4565_nse_dnn_0.20_bear_10_n02132136_9433.JPEG
vgg,4,726,NaN,dog,bear,0.20,4566_nse_dnn_0.20_bear_10_n02134418_3312.JPEG
vgg,4,727,NaN,dog,bear,0.20,4567_nse_dnn_0.20_bear_10_n02134418_5132.JPEG
vgg,4,728,NaN,dog,bear,0.20,4568_nse_dnn_0.20_bear_10_n02134418_5045.JPEG
vgg,4,729,NaN,boat,bear,0.20,4569_nse_dnn_0.20_bear_10_n02133161_2029.JPEG
vgg,4,730,NaN,dog,bear,0.20,4570_nse_dnn_0.20_bear_10_n02133161_15954.JPEG
vgg,4,731,NaN,clock,boat,0.20,4571_nse_dnn_0.20_boat_10_n03662601_14014.JPEG
vgg,4,732,NaN,bird,boat,0.20,4572_nse_dnn_0.20_boat_10_n03662601_12226.JPEG
vgg,4,733,NaN,dog,boat,0.20,4573_nse_dnn_0.20_boat_10_n03662601_30731.JPEG
vgg,4,734,NaN,dog,boat,0.20,4574_nse_dnn_0.20_boat_10_n02951358_9837.JPEG
vgg,4,735,NaN,dog,boat,0.20,4575_nse_dnn_0.20_boat_10_n02951358_3675.JPEG
vgg,4,736,NaN,bird,boat,0.20,4576_nse_dnn_0.20_boat_10_n02951358_14730.JPEG
vgg,4,737,NaN,clock,boat,0.20,4577_nse_dnn_0.20_boat_10_n04612504_6308.JPEG
vgg,4,738,NaN,clock,boat,0.20,4578_nse_dnn_0.20_boat_10_n02951358_537.JPEG
vgg,4,739,NaN,boat,boat,0.20,4579_nse_dnn_0.20_boat_10_n03662601_6462.JPEG
vgg,4,740,NaN,bird,boat,0.20,4580_nse_dnn_0.20_boat_10_n03662601_15970.JPEG
vgg,4,741,NaN,cat,cat,0.20,4581_nse_dnn_0.20_cat_10_n02123045_4181.JPEG
vgg,4,742,NaN,cat,cat,0.20,4582_nse_dnn_0.20_cat_10_n02123045_10703.JPEG
vgg,4,743,NaN,dog,cat,0.20,4583_nse_dnn_0.20_cat_10_n02123597_7563.JPEG
vgg,4,744,NaN,clock,cat,0.20,4584_nse_dnn_0.20_cat_10_n02123159_2236.JPEG
vgg,4,745,NaN,cat,cat,0.20,4585_nse_dnn_0.20_cat_10_n02123597_7136.JPEG
vgg,4,746,NaN,dog,cat,0.20,4586_nse_dnn_0.20_cat_10_n02123597_624.JPEG
vgg,4,747,NaN,dog,cat,0.20,4587_nse_dnn_0.20_cat_10_n02123159_2592.JPEG
vgg,4,748,NaN,dog,cat,0.20,4588_nse_dnn_0.20_cat_10_n02123045_3347.JPEG
vgg,4,749,NaN,dog,cat,0.20,4589_nse_dnn_0.20_cat_10_n02124075_8431.JPEG
vgg,4,750,NaN,dog,cat,0.20,4590_nse_dnn_0.20_cat_10_n02124075_7196.JPEG
vgg,4,751,NaN,clock,bottle,0.20,4591_nse_dnn_0.20_bottle_10_n03937543_1120.JPEG
vgg,4,752,NaN,bottle,bottle,0.20,4592_nse_dnn_0.20_bottle_10_n04557648_5684.JPEG
vgg,4,753,NaN,dog,bottle,0.20,4593_nse_dnn_0.20_bottle_10_n04560804_8845.JPEG
vgg,4,754,NaN,cat,bottle,0.20,4594_nse_dnn_0.20_bottle_10_n04591713_78.JPEG
vgg,4,755,NaN,dog,bottle,0.20,4595_nse_dnn_0.20_bottle_10_n02823428_725.JPEG
vgg,4,756,NaN,dog,bottle,0.20,4596_nse_dnn_0.20_bottle_10_n04591713_1739.JPEG
vgg,4,757,NaN,dog,bottle,0.20,4597_nse_dnn_0.20_bottle_10_n03937543_5508.JPEG
vgg,4,758,NaN,bottle,bottle,0.20,4598_nse_dnn_0.20_bottle_10_n02823428_3619.JPEG
vgg,4,759,NaN,dog,bottle,0.20,4599_nse_dnn_0.20_bottle_10_n04557648_10265.JPEG
vgg,4,760,NaN,dog,bottle,0.20,4600_nse_dnn_0.20_bottle_10_n04560804_1497.JPEG
vgg,4,761,NaN,bird,truck,0.20,4601_nse_dnn_0.20_truck_10_n04467665_67909.JPEG
vgg,4,762,NaN,dog,truck,0.20,4602_nse_dnn_0.20_truck_10_n03417042_3592.JPEG
vgg,4,763,NaN,clock,truck,0.20,4603_nse_dnn_0.20_truck_10_n03417042_14500.JPEG
vgg,4,764,NaN,clock,truck,0.20,4604_nse_dnn_0.20_truck_10_n03417042_19862.JPEG
vgg,4,765,NaN,bird,truck,0.20,4605_nse_dnn_0.20_truck_10_n04467665_21087.JPEG
vgg,4,766,NaN,clock,truck,0.20,4606_nse_dnn_0.20_truck_10_n04467665_39373.JPEG
vgg,4,767,NaN,clock,truck,0.20,4607_nse_dnn_0.20_truck_10_n04467665_4287.JPEG
vgg,4,768,NaN,clock,truck,0.20,4608_nse_dnn_0.20_truck_10_n03417042_4420.JPEG
vgg,4,769,NaN,clock,truck,0.20,4609_nse_dnn_0.20_truck_10_n03796401_17201.JPEG
vgg,4,770,NaN,truck,truck,0.20,4610_nse_dnn_0.20_truck_10_n04467665_10036.JPEG
vgg,4,771,NaN,cat,car,0.20,4611_nse_dnn_0.20_car_10_n04285008_12573.JPEG
vgg,4,772,NaN,clock,car,0.20,4612_nse_dnn_0.20_car_10_n02814533_9055.JPEG
vgg,4,773,NaN,clock,car,0.20,4613_nse_dnn_0.20_car_10_n04285008_8212.JPEG
vgg,4,774,NaN,truck,car,0.20,4614_nse_dnn_0.20_car_10_n02814533_85312.JPEG
vgg,4,775,NaN,clock,car,0.20,4615_nse_dnn_0.20_car_10_n03100240_1535.JPEG
vgg,4,776,NaN,dog,car,0.20,4616_nse_dnn_0.20_car_10_n02814533_31291.JPEG
vgg,4,777,NaN,dog,car,0.20,4617_nse_dnn_0.20_car_10_n04285008_7816.JPEG
vgg,4,778,NaN,dog,car,0.20,4618_nse_dnn_0.20_car_10_n02814533_62356.JPEG
vgg,4,779,NaN,cat,car,0.20,4619_nse_dnn_0.20_car_10_n03100240_20489.JPEG
vgg,4,780,NaN,clock,car,0.20,4620_nse_dnn_0.20_car_10_n03100240_264.JPEG
vgg,4,781,NaN,bird,bird,0.20,4621_nse_dnn_0.20_bird_10_n02009912_9983.JPEG
vgg,4,782,NaN,dog,bird,0.20,4622_nse_dnn_0.20_bird_10_n01855032_1693.JPEG
vgg,4,783,NaN,dog,bird,0.20,4623_nse_dnn_0.20_bird_10_n01592084_7086.JPEG
vgg,4,784,NaN,dog,bird,0.20,4624_nse_dnn_0.20_bird_10_n02056570_5770.JPEG
vgg,4,785,NaN,boat,bird,0.20,4625_nse_dnn_0.20_bird_10_n01614925_8737.JPEG
vgg,4,786,NaN,dog,bird,0.20,4626_nse_dnn_0.20_bird_10_n01818515_14616.JPEG
vgg,4,787,NaN,bird,bird,0.20,4627_nse_dnn_0.20_bird_10_n01614925_338.JPEG
vgg,4,788,NaN,dog,bird,0.20,4628_nse_dnn_0.20_bird_10_n02037110_785.JPEG
vgg,4,789,NaN,dog,bird,0.20,4629_nse_dnn_0.20_bird_10_n01817953_3601.JPEG
vgg,4,790,NaN,dog,bird,0.20,4630_nse_dnn_0.20_bird_10_n02051845_3423.JPEG
vgg,4,791,NaN,dog,dog,0.20,4631_nse_dnn_0.20_dog_10_n02109961_16520.JPEG
vgg,4,792,NaN,bird,dog,0.20,4632_nse_dnn_0.20_dog_10_n02088364_4676.JPEG
vgg,4,793,NaN,dog,dog,0.20,4633_nse_dnn_0.20_dog_10_n02107142_21231.JPEG
vgg,4,794,NaN,dog,dog,0.20,4634_nse_dnn_0.20_dog_10_n02109047_11090.JPEG
vgg,4,795,NaN,dog,dog,0.20,4635_nse_dnn_0.20_dog_10_n02105056_5668.JPEG
vgg,4,796,NaN,clock,dog,0.20,4636_nse_dnn_0.20_dog_10_n02086646_5927.JPEG
vgg,4,797,NaN,dog,dog,0.20,4637_nse_dnn_0.20_dog_10_n02097298_10484.JPEG
vgg,4,798,NaN,cat,dog,0.20,4638_nse_dnn_0.20_dog_10_n02106550_8500.JPEG
vgg,4,799,NaN,dog,dog,0.20,4639_nse_dnn_0.20_dog_10_n02106382_2750.JPEG
vgg,4,800,NaN,dog,dog,0.20,4640_nse_dnn_0.20_dog_10_n02099267_3701.JPEG
vgg,4,801,NaN,dog,knife,0.35,4641_nse_dnn_0.35_knife_10_n03041632_13656.JPEG
vgg,4,802,NaN,dog,knife,0.35,4642_nse_dnn_0.35_knife_10_n03041632_40652.JPEG
vgg,4,803,NaN,dog,knife,0.35,4643_nse_dnn_0.35_knife_10_n03041632_40508.JPEG
vgg,4,804,NaN,bottle,knife,0.35,4644_nse_dnn_0.35_knife_10_n03041632_15099.JPEG
vgg,4,805,NaN,bird,knife,0.35,4645_nse_dnn_0.35_knife_10_n03041632_1556.JPEG
vgg,4,806,NaN,dog,knife,0.35,4646_nse_dnn_0.35_knife_10_n03041632_932.JPEG
vgg,4,807,NaN,dog,knife,0.35,4647_nse_dnn_0.35_knife_10_n03041632_11797.JPEG
vgg,4,808,NaN,bottle,knife,0.35,4648_nse_dnn_0.35_knife_10_n03041632_26340.JPEG
vgg,4,809,NaN,dog,knife,0.35,4649_nse_dnn_0.35_knife_10_n03041632_13478.JPEG
vgg,4,810,NaN,dog,knife,0.35,4650_nse_dnn_0.35_knife_10_n03041632_13130.JPEG
vgg,4,811,NaN,dog,keyboard,0.35,4651_nse_dnn_0.35_keyboard_10_n04505470_5128.JPEG
vgg,4,812,NaN,dog,keyboard,0.35,4652_nse_dnn_0.35_keyboard_10_n03085013_23905.JPEG
vgg,4,813,NaN,bottle,keyboard,0.35,4653_nse_dnn_0.35_keyboard_10_n03085013_21490.JPEG
vgg,4,814,NaN,dog,keyboard,0.35,4654_nse_dnn_0.35_keyboard_10_n04505470_1118.JPEG
vgg,4,815,NaN,cat,keyboard,0.35,4655_nse_dnn_0.35_keyboard_10_n03085013_24408.JPEG
vgg,4,816,NaN,bottle,keyboard,0.35,4656_nse_dnn_0.35_keyboard_10_n03085013_24272.JPEG
vgg,4,817,NaN,dog,keyboard,0.35,4657_nse_dnn_0.35_keyboard_10_n03085013_5812.JPEG
vgg,4,818,NaN,bottle,keyboard,0.35,4658_nse_dnn_0.35_keyboard_10_n03085013_22796.JPEG
vgg,4,819,NaN,bird,keyboard,0.35,4659_nse_dnn_0.35_keyboard_10_n03085013_24044.JPEG
vgg,4,820,NaN,dog,keyboard,0.35,4660_nse_dnn_0.35_keyboard_10_n04505470_945.JPEG
vgg,4,821,NaN,dog,elephant,0.35,4661_nse_dnn_0.35_elephant_10_n02504458_5774.JPEG
vgg,4,822,NaN,dog,elephant,0.35,4662_nse_dnn_0.35_elephant_10_n02504013_21311.JPEG
vgg,4,823,NaN,dog,elephant,0.35,4663_nse_dnn_0.35_elephant_10_n02504013_2032.JPEG
vgg,4,824,NaN,dog,elephant,0.35,4664_nse_dnn_0.35_elephant_10_n02504458_1844.JPEG
vgg,4,825,NaN,dog,elephant,0.35,4665_nse_dnn_0.35_elephant_10_n02504013_2976.JPEG
vgg,4,826,NaN,dog,elephant,0.35,4666_nse_dnn_0.35_elephant_10_n02504458_8134.JPEG
vgg,4,827,NaN,bottle,elephant,0.35,4667_nse_dnn_0.35_elephant_10_n02504013_13560.JPEG
vgg,4,828,NaN,cat,elephant,0.35,4668_nse_dnn_0.35_elephant_10_n02504013_2545.JPEG
vgg,4,829,NaN,dog,elephant,0.35,4669_nse_dnn_0.35_elephant_10_n02504458_954.JPEG
vgg,4,830,NaN,bird,elephant,0.35,4670_nse_dnn_0.35_elephant_10_n02504013_174.JPEG
vgg,4,831,NaN,bird,bicycle,0.35,4671_nse_dnn_0.35_bicycle_10_n02835271_949.JPEG
vgg,4,832,NaN,dog,bicycle,0.35,4672_nse_dnn_0.35_bicycle_10_n03792782_11169.JPEG
vgg,4,833,NaN,dog,bicycle,0.35,4673_nse_dnn_0.35_bicycle_10_n03792782_8224.JPEG
vgg,4,834,NaN,dog,bicycle,0.35,4674_nse_dnn_0.35_bicycle_10_n03792782_70169.JPEG
vgg,4,835,NaN,bottle,bicycle,0.35,4675_nse_dnn_0.35_bicycle_10_n03792782_1782.JPEG
vgg,4,836,NaN,dog,bicycle,0.35,4676_nse_dnn_0.35_bicycle_10_n02835271_3811.JPEG
vgg,4,837,NaN,dog,bicycle,0.35,4677_nse_dnn_0.35_bicycle_10_n02835271_21043.JPEG
vgg,4,838,NaN,dog,bicycle,0.35,4678_nse_dnn_0.35_bicycle_10_n02835271_4409.JPEG
vgg,4,839,NaN,bird,bicycle,0.35,4679_nse_dnn_0.35_bicycle_10_n03792782_11118.JPEG
vgg,4,840,NaN,cat,bicycle,0.35,4680_nse_dnn_0.35_bicycle_10_n03792782_15016.JPEG
vgg,4,841,NaN,dog,airplane,0.35,4681_nse_dnn_0.35_airplane_10_n02690373_2564.JPEG
vgg,4,842,NaN,dog,airplane,0.35,4682_nse_dnn_0.35_airplane_10_n02690373_8175.JPEG
vgg,4,843,NaN,bottle,airplane,0.35,4683_nse_dnn_0.35_airplane_10_n02690373_7229.JPEG
vgg,4,844,NaN,bird,airplane,0.35,4684_nse_dnn_0.35_airplane_10_n02690373_1986.JPEG
vgg,4,845,NaN,bird,airplane,0.35,4685_nse_dnn_0.35_airplane_10_n02690373_4195.JPEG
vgg,4,846,NaN,dog,airplane,0.35,4686_nse_dnn_0.35_airplane_10_n02690373_9335.JPEG
vgg,4,847,NaN,dog,airplane,0.35,4687_nse_dnn_0.35_airplane_10_n02690373_1615.JPEG
vgg,4,848,NaN,bird,airplane,0.35,4688_nse_dnn_0.35_airplane_10_n02690373_10278.JPEG
vgg,4,849,NaN,bird,airplane,0.35,4689_nse_dnn_0.35_airplane_10_n02690373_2648.JPEG
vgg,4,850,NaN,bird,airplane,0.35,4690_nse_dnn_0.35_airplane_10_n02690373_464.JPEG
vgg,4,851,NaN,dog,clock,0.35,4691_nse_dnn_0.35_clock_10_n03196217_5493.JPEG
vgg,4,852,NaN,dog,clock,0.35,4692_nse_dnn_0.35_clock_10_n04548280_9700.JPEG
vgg,4,853,NaN,bottle,clock,0.35,4693_nse_dnn_0.35_clock_10_n03196217_8618.JPEG
vgg,4,854,NaN,dog,clock,0.35,4694_nse_dnn_0.35_clock_10_n04548280_22849.JPEG
vgg,4,855,NaN,dog,clock,0.35,4695_nse_dnn_0.35_clock_10_n03196217_7533.JPEG
vgg,4,856,NaN,bird,clock,0.35,4696_nse_dnn_0.35_clock_10_n03196217_11351.JPEG
vgg,4,857,NaN,dog,clock,0.35,4697_nse_dnn_0.35_clock_10_n03196217_4537.JPEG
vgg,4,858,NaN,dog,clock,0.35,4698_nse_dnn_0.35_clock_10_n04548280_8071.JPEG
vgg,4,859,NaN,bottle,clock,0.35,4699_nse_dnn_0.35_clock_10_n02708093_6890.JPEG
vgg,4,860,NaN,dog,clock,0.35,4700_nse_dnn_0.35_clock_10_n04548280_3716.JPEG
vgg,4,861,NaN,dog,oven,0.35,4701_nse_dnn_0.35_oven_10_n04111531_2987.JPEG
vgg,4,862,NaN,dog,oven,0.35,4702_nse_dnn_0.35_oven_10_n04111531_8917.JPEG
vgg,4,863,NaN,bottle,oven,0.35,4703_nse_dnn_0.35_oven_10_n04111531_4944.JPEG
vgg,4,864,NaN,bottle,oven,0.35,4704_nse_dnn_0.35_oven_10_n04111531_2930.JPEG
vgg,4,865,NaN,bottle,oven,0.35,4705_nse_dnn_0.35_oven_10_n04111531_1847.JPEG
vgg,4,866,NaN,dog,oven,0.35,4706_nse_dnn_0.35_oven_10_n04111531_1150.JPEG
vgg,4,867,NaN,dog,oven,0.35,4707_nse_dnn_0.35_oven_10_n04111531_10290.JPEG
vgg,4,868,NaN,dog,oven,0.35,4708_nse_dnn_0.35_oven_10_n04111531_5110.JPEG
vgg,4,869,NaN,cat,oven,0.35,4709_nse_dnn_0.35_oven_10_n04111531_3886.JPEG
vgg,4,870,NaN,bird,oven,0.35,4710_nse_dnn_0.35_oven_10_n04111531_19240.JPEG
vgg,4,871,NaN,dog,chair,0.35,4711_nse_dnn_0.35_chair_10_n03376595_7631.JPEG
vgg,4,872,NaN,bird,chair,0.35,4712_nse_dnn_0.35_chair_10_n03376595_11114.JPEG
vgg,4,873,NaN,dog,chair,0.35,4713_nse_dnn_0.35_chair_10_n04429376_20716.JPEG
vgg,4,874,NaN,clock,chair,0.35,4714_nse_dnn_0.35_chair_10_n03376595_3812.JPEG
vgg,4,875,NaN,bottle,chair,0.35,4715_nse_dnn_0.35_chair_10_n02791124_2223.JPEG
vgg,4,876,NaN,dog,chair,0.35,4716_nse_dnn_0.35_chair_10_n04099969_14091.JPEG
vgg,4,877,NaN,dog,chair,0.35,4717_nse_dnn_0.35_chair_10_n02791124_3817.JPEG
vgg,4,878,NaN,dog,chair,0.35,4718_nse_dnn_0.35_chair_10_n02791124_2773.JPEG
vgg,4,879,NaN,dog,chair,0.35,4719_nse_dnn_0.35_chair_10_n04099969_2523.JPEG
vgg,4,880,NaN,bottle,chair,0.35,4720_nse_dnn_0.35_chair_10_n02791124_1390.JPEG
vgg,4,881,NaN,dog,bear,0.35,4721_nse_dnn_0.35_bear_10_n02133161_12901.JPEG
vgg,4,882,NaN,dog,bear,0.35,4722_nse_dnn_0.35_bear_10_n02134084_13027.JPEG
vgg,4,883,NaN,dog,bear,0.35,4723_nse_dnn_0.35_bear_10_n02134084_1564.JPEG
vgg,4,884,NaN,dog,bear,0.35,4724_nse_dnn_0.35_bear_10_n02134084_27144.JPEG
vgg,4,885,NaN,dog,bear,0.35,4725_nse_dnn_0.35_bear_10_n02133161_1715.JPEG
vgg,4,886,NaN,dog,bear,0.35,4726_nse_dnn_0.35_bear_10_n02134084_21321.JPEG
vgg,4,887,NaN,dog,bear,0.35,4727_nse_dnn_0.35_bear_10_n02133161_4398.JPEG
vgg,4,888,NaN,dog,bear,0.35,4728_nse_dnn_0.35_bear_10_n02134084_1889.JPEG
vgg,4,889,NaN,dog,bear,0.35,4729_nse_dnn_0.35_bear_10_n02134084_7773.JPEG
vgg,4,890,NaN,dog,bear,0.35,4730_nse_dnn_0.35_bear_10_n02133161_14204.JPEG
vgg,4,891,NaN,bird,boat,0.35,4731_nse_dnn_0.35_boat_10_n03662601_7336.JPEG
vgg,4,892,NaN,dog,boat,0.35,4732_nse_dnn_0.35_boat_10_n03344393_5350.JPEG
vgg,4,893,NaN,bird,boat,0.35,4733_nse_dnn_0.35_boat_10_n04273569_8189.JPEG
vgg,4,894,NaN,dog,boat,0.35,4734_nse_dnn_0.35_boat_10_n04273569_51.JPEG
vgg,4,895,NaN,dog,boat,0.35,4735_nse_dnn_0.35_boat_10_n03344393_7011.JPEG
vgg,4,896,NaN,bottle,boat,0.35,4736_nse_dnn_0.35_boat_10_n04612504_10864.JPEG
vgg,4,897,NaN,dog,boat,0.35,4737_nse_dnn_0.35_boat_10_n04612504_9825.JPEG
vgg,4,898,NaN,dog,boat,0.35,4738_nse_dnn_0.35_boat_10_n03344393_4083.JPEG
vgg,4,899,NaN,bird,boat,0.35,4739_nse_dnn_0.35_boat_10_n03662601_27589.JPEG
vgg,4,900,NaN,bird,boat,0.35,4740_nse_dnn_0.35_boat_10_n04273569_13298.JPEG
vgg,4,901,NaN,dog,cat,0.35,4741_nse_dnn_0.35_cat_10_n02123159_835.JPEG
vgg,4,902,NaN,dog,cat,0.35,4742_nse_dnn_0.35_cat_10_n02123597_14023.JPEG
vgg,4,903,NaN,dog,cat,0.35,4743_nse_dnn_0.35_cat_10_n02125311_4626.JPEG
vgg,4,904,NaN,dog,cat,0.35,4744_nse_dnn_0.35_cat_10_n02123045_169.JPEG
vgg,4,905,NaN,dog,cat,0.35,4745_nse_dnn_0.35_cat_10_n02125311_46591.JPEG
vgg,4,906,NaN,bottle,cat,0.35,4746_nse_dnn_0.35_cat_10_n02123159_8241.JPEG
vgg,4,907,NaN,dog,cat,0.35,4747_nse_dnn_0.35_cat_10_n02123394_1653.JPEG
vgg,4,908,NaN,dog,cat,0.35,4748_nse_dnn_0.35_cat_10_n02123597_13901.JPEG
vgg,4,909,NaN,dog,cat,0.35,4749_nse_dnn_0.35_cat_10_n02125311_19876.JPEG
vgg,4,910,NaN,dog,cat,0.35,4750_nse_dnn_0.35_cat_10_n02125311_2737.JPEG
vgg,4,911,NaN,clock,bottle,0.35,4751_nse_dnn_0.35_bottle_10_n03937543_9524.JPEG
vgg,4,912,NaN,dog,bottle,0.35,4752_nse_dnn_0.35_bottle_10_n03983396_12049.JPEG
vgg,4,913,NaN,bottle,bottle,0.35,4753_nse_dnn_0.35_bottle_10_n03983396_4439.JPEG
vgg,4,914,NaN,bottle,bottle,0.35,4754_nse_dnn_0.35_bottle_10_n02823428_4468.JPEG
vgg,4,915,NaN,bottle,bottle,0.35,4755_nse_dnn_0.35_bottle_10_n04591713_4367.JPEG
vgg,4,916,NaN,dog,bottle,0.35,4756_nse_dnn_0.35_bottle_10_n04557648_16525.JPEG
vgg,4,917,NaN,dog,bottle,0.35,4757_nse_dnn_0.35_bottle_10_n04560804_5756.JPEG
vgg,4,918,NaN,clock,bottle,0.35,4758_nse_dnn_0.35_bottle_10_n03937543_10543.JPEG
vgg,4,919,NaN,dog,bottle,0.35,4759_nse_dnn_0.35_bottle_10_n04557648_3364.JPEG
vgg,4,920,NaN,cat,bottle,0.35,4760_nse_dnn_0.35_bottle_10_n04591713_941.JPEG
vgg,4,921,NaN,bird,truck,0.35,4761_nse_dnn_0.35_truck_10_n03796401_5053.JPEG
vgg,4,922,NaN,bottle,truck,0.35,4762_nse_dnn_0.35_truck_10_n03796401_11076.JPEG
vgg,4,923,NaN,dog,truck,0.35,4763_nse_dnn_0.35_truck_10_n04467665_23055.JPEG
vgg,4,924,NaN,dog,truck,0.35,4764_nse_dnn_0.35_truck_10_n04467665_71055.JPEG
vgg,4,925,NaN,bottle,truck,0.35,4765_nse_dnn_0.35_truck_10_n03417042_7530.JPEG
vgg,4,926,NaN,dog,truck,0.35,4766_nse_dnn_0.35_truck_10_n03417042_11435.JPEG
vgg,4,927,NaN,bird,truck,0.35,4767_nse_dnn_0.35_truck_10_n03417042_19838.JPEG
vgg,4,928,NaN,dog,truck,0.35,4768_nse_dnn_0.35_truck_10_n04467665_28888.JPEG
vgg,4,929,NaN,dog,truck,0.35,4769_nse_dnn_0.35_truck_10_n04467665_70886.JPEG
vgg,4,930,NaN,dog,truck,0.35,4770_nse_dnn_0.35_truck_10_n04467665_24332.JPEG
vgg,4,931,NaN,dog,car,0.35,4771_nse_dnn_0.35_car_10_n02814533_92253.JPEG
vgg,4,932,NaN,clock,car,0.35,4772_nse_dnn_0.35_car_10_n03100240_12747.JPEG
vgg,4,933,NaN,dog,car,0.35,4773_nse_dnn_0.35_car_10_n04285008_860.JPEG
vgg,4,934,NaN,dog,car,0.35,4774_nse_dnn_0.35_car_10_n02814533_42059.JPEG
vgg,4,935,NaN,cat,car,0.35,4775_nse_dnn_0.35_car_10_n04285008_5869.JPEG
vgg,4,936,NaN,dog,car,0.35,4776_nse_dnn_0.35_car_10_n02814533_8345.JPEG
vgg,4,937,NaN,cat,car,0.35,4777_nse_dnn_0.35_car_10_n04285008_3268.JPEG
vgg,4,938,NaN,dog,car,0.35,4778_nse_dnn_0.35_car_10_n03100240_2667.JPEG
vgg,4,939,NaN,dog,car,0.35,4779_nse_dnn_0.35_car_10_n02814533_34149.JPEG
vgg,4,940,NaN,bird,car,0.35,4780_nse_dnn_0.35_car_10_n04285008_3160.JPEG
vgg,4,941,NaN,dog,bird,0.35,4781_nse_dnn_0.35_bird_10_n01537544_2374.JPEG
vgg,4,942,NaN,dog,bird,0.35,4782_nse_dnn_0.35_bird_10_n01592084_5167.JPEG
vgg,4,943,NaN,dog,bird,0.35,4783_nse_dnn_0.35_bird_10_n01537544_5047.JPEG
vgg,4,944,NaN,dog,bird,0.35,4784_nse_dnn_0.35_bird_10_n01824575_2061.JPEG
vgg,4,945,NaN,dog,bird,0.35,4785_nse_dnn_0.35_bird_10_n01560419_18486.JPEG
vgg,4,946,NaN,dog,bird,0.35,4786_nse_dnn_0.35_bird_10_n02051845_11207.JPEG
vgg,4,947,NaN,dog,bird,0.35,4787_nse_dnn_0.35_bird_10_n01531178_12589.JPEG
vgg,4,948,NaN,bird,bird,0.35,4788_nse_dnn_0.35_bird_10_n01601694_1368.JPEG
vgg,4,949,NaN,dog,bird,0.35,4789_nse_dnn_0.35_bird_10_n01797886_18701.JPEG
vgg,4,950,NaN,dog,bird,0.35,4790_nse_dnn_0.35_bird_10_n01592084_6261.JPEG
vgg,4,951,NaN,dog,dog,0.35,4791_nse_dnn_0.35_dog_10_n02088364_13616.JPEG
vgg,4,952,NaN,dog,dog,0.35,4792_nse_dnn_0.35_dog_10_n02099429_5687.JPEG
vgg,4,953,NaN,dog,dog,0.35,4793_nse_dnn_0.35_dog_10_n02087046_4489.JPEG
vgg,4,954,NaN,dog,dog,0.35,4794_nse_dnn_0.35_dog_10_n02111129_1681.JPEG
vgg,4,955,NaN,dog,dog,0.35,4795_nse_dnn_0.35_dog_10_n02109961_2172.JPEG
vgg,4,956,NaN,dog,dog,0.35,4796_nse_dnn_0.35_dog_10_n02105641_13242.JPEG
vgg,4,957,NaN,bird,dog,0.35,4797_nse_dnn_0.35_dog_10_n02099712_3541.JPEG
vgg,4,958,NaN,cat,dog,0.35,4798_nse_dnn_0.35_dog_10_n02097130_344.JPEG
vgg,4,959,NaN,dog,dog,0.35,4799_nse_dnn_0.35_dog_10_n02094258_5084.JPEG
vgg,4,960,NaN,dog,dog,0.35,4800_nse_dnn_0.35_dog_10_n02097658_6920.JPEG
vgg,4,961,NaN,dog,knife,0.60,4801_nse_dnn_0.60_knife_10_n03041632_10796.JPEG
vgg,4,962,NaN,dog,knife,0.60,4802_nse_dnn_0.60_knife_10_n03041632_39952.JPEG
vgg,4,963,NaN,dog,knife,0.60,4803_nse_dnn_0.60_knife_10_n03041632_28009.JPEG
vgg,4,964,NaN,bottle,knife,0.60,4804_nse_dnn_0.60_knife_10_n03041632_1671.JPEG
vgg,4,965,NaN,dog,knife,0.60,4805_nse_dnn_0.60_knife_10_n03041632_14293.JPEG
vgg,4,966,NaN,dog,knife,0.60,4806_nse_dnn_0.60_knife_10_n03041632_49513.JPEG
vgg,4,967,NaN,bottle,knife,0.60,4807_nse_dnn_0.60_knife_10_n03041632_44238.JPEG
vgg,4,968,NaN,bottle,knife,0.60,4808_nse_dnn_0.60_knife_10_n03041632_80829.JPEG
vgg,4,969,NaN,dog,knife,0.60,4809_nse_dnn_0.60_knife_10_n03041632_2468.JPEG
vgg,4,970,NaN,dog,knife,0.60,4810_nse_dnn_0.60_knife_10_n03041632_4975.JPEG
vgg,4,971,NaN,bird,keyboard,0.60,4811_nse_dnn_0.60_keyboard_10_n04505470_1903.JPEG
vgg,4,972,NaN,dog,keyboard,0.60,4812_nse_dnn_0.60_keyboard_10_n03085013_5539.JPEG
vgg,4,973,NaN,dog,keyboard,0.60,4813_nse_dnn_0.60_keyboard_10_n03085013_2860.JPEG
vgg,4,974,NaN,dog,keyboard,0.60,4814_nse_dnn_0.60_keyboard_10_n03085013_21641.JPEG
vgg,4,975,NaN,bottle,keyboard,0.60,4815_nse_dnn_0.60_keyboard_10_n04505470_1097.JPEG
vgg,4,976,NaN,dog,keyboard,0.60,4816_nse_dnn_0.60_keyboard_10_n04505470_2427.JPEG
vgg,4,977,NaN,dog,keyboard,0.60,4817_nse_dnn_0.60_keyboard_10_n03085013_25181.JPEG
vgg,4,978,NaN,bird,keyboard,0.60,4818_nse_dnn_0.60_keyboard_10_n03085013_679.JPEG
vgg,4,979,NaN,dog,keyboard,0.60,4819_nse_dnn_0.60_keyboard_10_n03085013_23867.JPEG
vgg,4,980,NaN,dog,keyboard,0.60,4820_nse_dnn_0.60_keyboard_10_n04505470_1529.JPEG
vgg,4,981,NaN,bottle,elephant,0.60,4821_nse_dnn_0.60_elephant_10_n02504458_5972.JPEG
vgg,4,982,NaN,bottle,elephant,0.60,4822_nse_dnn_0.60_elephant_10_n02504013_2075.JPEG
vgg,4,983,NaN,bird,elephant,0.60,4823_nse_dnn_0.60_elephant_10_n02504013_4718.JPEG
vgg,4,984,NaN,dog,elephant,0.60,4824_nse_dnn_0.60_elephant_10_n02504013_93.JPEG
vgg,4,985,NaN,bottle,elephant,0.60,4825_nse_dnn_0.60_elephant_10_n02504458_11961.JPEG
vgg,4,986,NaN,bird,elephant,0.60,4826_nse_dnn_0.60_elephant_10_n02504458_5483.JPEG
vgg,4,987,NaN,bottle,elephant,0.60,4827_nse_dnn_0.60_elephant_10_n02504458_7708.JPEG
vgg,4,988,NaN,dog,elephant,0.60,4828_nse_dnn_0.60_elephant_10_n02504458_1929.JPEG
vgg,4,989,NaN,dog,elephant,0.60,4829_nse_dnn_0.60_elephant_10_n02504458_8291.JPEG
vgg,4,990,NaN,bird,elephant,0.60,4830_nse_dnn_0.60_elephant_10_n02504458_2618.JPEG
vgg,4,991,NaN,dog,bicycle,0.60,4831_nse_dnn_0.60_bicycle_10_n02835271_12861.JPEG
vgg,4,992,NaN,dog,bicycle,0.60,4832_nse_dnn_0.60_bicycle_10_n02835271_11929.JPEG
vgg,4,993,NaN,dog,bicycle,0.60,4833_nse_dnn_0.60_bicycle_10_n02835271_44763.JPEG
vgg,4,994,NaN,dog,bicycle,0.60,4834_nse_dnn_0.60_bicycle_10_n03792782_30942.JPEG
vgg,4,995,NaN,bird,bicycle,0.60,4835_nse_dnn_0.60_bicycle_10_n03792782_52581.JPEG
vgg,4,996,NaN,bird,bicycle,0.60,4836_nse_dnn_0.60_bicycle_10_n03792782_51723.JPEG
vgg,4,997,NaN,dog,bicycle,0.60,4837_nse_dnn_0.60_bicycle_10_n02835271_8689.JPEG
vgg,4,998,NaN,dog,bicycle,0.60,4838_nse_dnn_0.60_bicycle_10_n03792782_11390.JPEG
vgg,4,999,NaN,bottle,bicycle,0.60,4839_nse_dnn_0.60_bicycle_10_n02835271_15266.JPEG
vgg,4,1000,NaN,dog,bicycle,0.60,4840_nse_dnn_0.60_bicycle_10_n02835271_8105.JPEG
vgg,4,1001,NaN,bird,airplane,0.60,4841_nse_dnn_0.60_airplane_10_n02690373_2629.JPEG
vgg,4,1002,NaN,bird,airplane,0.60,4842_nse_dnn_0.60_airplane_10_n02690373_3729.JPEG
vgg,4,1003,NaN,dog,airplane,0.60,4843_nse_dnn_0.60_airplane_10_n02690373_6803.JPEG
vgg,4,1004,NaN,bird,airplane,0.60,4844_nse_dnn_0.60_airplane_10_n02690373_5475.JPEG
vgg,4,1005,NaN,dog,airplane,0.60,4845_nse_dnn_0.60_airplane_10_n02690373_6144.JPEG
vgg,4,1006,NaN,bottle,airplane,0.60,4846_nse_dnn_0.60_airplane_10_n02690373_1974.JPEG
vgg,4,1007,NaN,dog,airplane,0.60,4847_nse_dnn_0.60_airplane_10_n02690373_16250.JPEG
vgg,4,1008,NaN,dog,airplane,0.60,4848_nse_dnn_0.60_airplane_10_n02690373_6147.JPEG
vgg,4,1009,NaN,bird,airplane,0.60,4849_nse_dnn_0.60_airplane_10_n02690373_1038.JPEG
vgg,4,1010,NaN,dog,airplane,0.60,4850_nse_dnn_0.60_airplane_10_n02690373_8527.JPEG
vgg,4,1011,NaN,bottle,clock,0.60,4851_nse_dnn_0.60_clock_10_n02708093_2178.JPEG
vgg,4,1012,NaN,dog,clock,0.60,4852_nse_dnn_0.60_clock_10_n03196217_11035.JPEG
vgg,4,1013,NaN,bird,clock,0.60,4853_nse_dnn_0.60_clock_10_n04548280_2227.JPEG
vgg,4,1014,NaN,bird,clock,0.60,4854_nse_dnn_0.60_clock_10_n02708093_1384.JPEG
vgg,4,1015,NaN,dog,clock,0.60,4855_nse_dnn_0.60_clock_10_n04548280_7687.JPEG
vgg,4,1016,NaN,dog,clock,0.60,4856_nse_dnn_0.60_clock_10_n04548280_4526.JPEG
vgg,4,1017,NaN,bottle,clock,0.60,4857_nse_dnn_0.60_clock_10_n04548280_1166.JPEG
vgg,4,1018,NaN,bottle,clock,0.60,4858_nse_dnn_0.60_clock_10_n04548280_5273.JPEG
vgg,4,1019,NaN,bottle,clock,0.60,4859_nse_dnn_0.60_clock_10_n04548280_8917.JPEG
vgg,4,1020,NaN,dog,clock,0.60,4860_nse_dnn_0.60_clock_10_n04548280_7321.JPEG
vgg,4,1021,NaN,dog,oven,0.60,4861_nse_dnn_0.60_oven_10_n04111531_2643.JPEG
vgg,4,1022,NaN,bird,oven,0.60,4862_nse_dnn_0.60_oven_10_n04111531_6128.JPEG
vgg,4,1023,NaN,bottle,oven,0.60,4863_nse_dnn_0.60_oven_10_n04111531_7923.JPEG
vgg,4,1024,NaN,bird,oven,0.60,4864_nse_dnn_0.60_oven_10_n04111531_15629.JPEG
vgg,4,1025,NaN,dog,oven,0.60,4865_nse_dnn_0.60_oven_10_n04111531_1298.JPEG
vgg,4,1026,NaN,dog,oven,0.60,4866_nse_dnn_0.60_oven_10_n04111531_14126.JPEG
vgg,4,1027,NaN,bottle,oven,0.60,4867_nse_dnn_0.60_oven_10_n04111531_7097.JPEG
vgg,4,1028,NaN,dog,oven,0.60,4868_nse_dnn_0.60_oven_10_n04111531_8688.JPEG
vgg,4,1029,NaN,dog,oven,0.60,4869_nse_dnn_0.60_oven_10_n04111531_2797.JPEG
vgg,4,1030,NaN,bottle,oven,0.60,4870_nse_dnn_0.60_oven_10_n04111531_22386.JPEG
vgg,4,1031,NaN,bird,chair,0.60,4871_nse_dnn_0.60_chair_10_n04429376_16869.JPEG
vgg,4,1032,NaN,dog,chair,0.60,4872_nse_dnn_0.60_chair_10_n04429376_10453.JPEG
vgg,4,1033,NaN,dog,chair,0.60,4873_nse_dnn_0.60_chair_10_n04099969_1854.JPEG
vgg,4,1034,NaN,dog,chair,0.60,4874_nse_dnn_0.60_chair_10_n04099969_4902.JPEG
vgg,4,1035,NaN,dog,chair,0.60,4875_nse_dnn_0.60_chair_10_n02791124_1798.JPEG
vgg,4,1036,NaN,bird,chair,0.60,4876_nse_dnn_0.60_chair_10_n04429376_11642.JPEG
vgg,4,1037,NaN,bottle,chair,0.60,4877_nse_dnn_0.60_chair_10_n04429376_18127.JPEG
vgg,4,1038,NaN,dog,chair,0.60,4878_nse_dnn_0.60_chair_10_n04099969_7147.JPEG
vgg,4,1039,NaN,bottle,chair,0.60,4879_nse_dnn_0.60_chair_10_n02791124_422.JPEG
vgg,4,1040,NaN,dog,chair,0.60,4880_nse_dnn_0.60_chair_10_n03376595_2891.JPEG
vgg,4,1041,NaN,bottle,bear,0.60,4881_nse_dnn_0.60_bear_10_n02133161_2252.JPEG
vgg,4,1042,NaN,bird,bear,0.60,4882_nse_dnn_0.60_bear_10_n02133161_14109.JPEG
vgg,4,1043,NaN,bottle,bear,0.60,4883_nse_dnn_0.60_bear_10_n02132136_4821.JPEG
vgg,4,1044,NaN,bird,bear,0.60,4884_nse_dnn_0.60_bear_10_n02132136_23163.JPEG
vgg,4,1045,NaN,bird,bear,0.60,4885_nse_dnn_0.60_bear_10_n02133161_7996.JPEG
vgg,4,1046,NaN,bird,bear,0.60,4886_nse_dnn_0.60_bear_10_n02133161_3187.JPEG
vgg,4,1047,NaN,dog,bear,0.60,4887_nse_dnn_0.60_bear_10_n02132136_2029.JPEG
vgg,4,1048,NaN,dog,bear,0.60,4888_nse_dnn_0.60_bear_10_n02132136_2391.JPEG
vgg,4,1049,NaN,bird,bear,0.60,4889_nse_dnn_0.60_bear_10_n02132136_1847.JPEG
vgg,4,1050,NaN,dog,bear,0.60,4890_nse_dnn_0.60_bear_10_n02132136_6547.JPEG
vgg,4,1051,NaN,dog,boat,0.60,4891_nse_dnn_0.60_boat_10_n04273569_11964.JPEG
vgg,4,1052,NaN,bird,boat,0.60,4892_nse_dnn_0.60_boat_10_n02951358_8446.JPEG
vgg,4,1053,NaN,bird,boat,0.60,4893_nse_dnn_0.60_boat_10_n04273569_9015.JPEG
vgg,4,1054,NaN,dog,boat,0.60,4894_nse_dnn_0.60_boat_10_n02951358_94.JPEG
vgg,4,1055,NaN,bird,boat,0.60,4895_nse_dnn_0.60_boat_10_n03662601_81.JPEG
vgg,4,1056,NaN,dog,boat,0.60,4896_nse_dnn_0.60_boat_10_n04612504_6667.JPEG
vgg,4,1057,NaN,bird,boat,0.60,4897_nse_dnn_0.60_boat_10_n03344393_9560.JPEG
vgg,4,1058,NaN,dog,boat,0.60,4898_nse_dnn_0.60_boat_10_n03662601_9233.JPEG
vgg,4,1059,NaN,bird,boat,0.60,4899_nse_dnn_0.60_boat_10_n04273569_2723.JPEG
vgg,4,1060,NaN,dog,boat,0.60,4900_nse_dnn_0.60_boat_10_n03344393_2002.JPEG
vgg,4,1061,NaN,dog,cat,0.60,4901_nse_dnn_0.60_cat_10_n02123597_7814.JPEG
vgg,4,1062,NaN,bird,cat,0.60,4902_nse_dnn_0.60_cat_10_n02123597_6919.JPEG
vgg,4,1063,NaN,bottle,cat,0.60,4903_nse_dnn_0.60_cat_10_n02123045_2318.JPEG
vgg,4,1064,NaN,bottle,cat,0.60,4904_nse_dnn_0.60_cat_10_n02124075_11168.JPEG
vgg,4,1065,NaN,bottle,cat,0.60,4905_nse_dnn_0.60_cat_10_n02123045_8127.JPEG
vgg,4,1066,NaN,bottle,cat,0.60,4906_nse_dnn_0.60_cat_10_n02125311_36254.JPEG
vgg,4,1067,NaN,bottle,cat,0.60,4907_nse_dnn_0.60_cat_10_n02123159_7364.JPEG
vgg,4,1068,NaN,bird,cat,0.60,4908_nse_dnn_0.60_cat_10_n02125311_48873.JPEG
vgg,4,1069,NaN,bird,cat,0.60,4909_nse_dnn_0.60_cat_10_n02123597_7470.JPEG
vgg,4,1070,NaN,bottle,cat,0.60,4910_nse_dnn_0.60_cat_10_n02123045_5388.JPEG
vgg,4,1071,NaN,dog,bottle,0.60,4911_nse_dnn_0.60_bottle_10_n03937543_958.JPEG
vgg,4,1072,NaN,bottle,bottle,0.60,4912_nse_dnn_0.60_bottle_10_n04591713_362.JPEG
vgg,4,1073,NaN,bottle,bottle,0.60,4913_nse_dnn_0.60_bottle_10_n03983396_644.JPEG
vgg,4,1074,NaN,dog,bottle,0.60,4914_nse_dnn_0.60_bottle_10_n04591713_6698.JPEG
vgg,4,1075,NaN,bird,bottle,0.60,4915_nse_dnn_0.60_bottle_10_n03983396_14605.JPEG
vgg,4,1076,NaN,dog,bottle,0.60,4916_nse_dnn_0.60_bottle_10_n04560804_15432.JPEG
vgg,4,1077,NaN,bottle,bottle,0.60,4917_nse_dnn_0.60_bottle_10_n04591713_7611.JPEG
vgg,4,1078,NaN,dog,bottle,0.60,4918_nse_dnn_0.60_bottle_10_n03983396_11025.JPEG
vgg,4,1079,NaN,dog,bottle,0.60,4919_nse_dnn_0.60_bottle_10_n04591713_2713.JPEG
vgg,4,1080,NaN,bottle,bottle,0.60,4920_nse_dnn_0.60_bottle_10_n03983396_2053.JPEG
vgg,4,1081,NaN,bird,truck,0.60,4921_nse_dnn_0.60_truck_10_n04467665_51991.JPEG
vgg,4,1082,NaN,bird,truck,0.60,4922_nse_dnn_0.60_truck_10_n04467665_70579.JPEG
vgg,4,1083,NaN,bird,truck,0.60,4923_nse_dnn_0.60_truck_10_n03417042_21663.JPEG
vgg,4,1084,NaN,bird,truck,0.60,4924_nse_dnn_0.60_truck_10_n03417042_12988.JPEG
vgg,4,1085,NaN,dog,truck,0.60,4925_nse_dnn_0.60_truck_10_n03417042_7506.JPEG
vgg,4,1086,NaN,dog,truck,0.60,4926_nse_dnn_0.60_truck_10_n03417042_29384.JPEG
vgg,4,1087,NaN,dog,truck,0.60,4927_nse_dnn_0.60_truck_10_n04467665_59039.JPEG
vgg,4,1088,NaN,dog,truck,0.60,4928_nse_dnn_0.60_truck_10_n03417042_3047.JPEG
vgg,4,1089,NaN,bottle,truck,0.60,4929_nse_dnn_0.60_truck_10_n03417042_9698.JPEG
vgg,4,1090,NaN,dog,truck,0.60,4930_nse_dnn_0.60_truck_10_n03796401_5338.JPEG
vgg,4,1091,NaN,dog,car,0.60,4931_nse_dnn_0.60_car_10_n03100240_10110.JPEG
vgg,4,1092,NaN,bird,car,0.60,4932_nse_dnn_0.60_car_10_n03100240_10502.JPEG
vgg,4,1093,NaN,dog,car,0.60,4933_nse_dnn_0.60_car_10_n03100240_1011.JPEG
vgg,4,1094,NaN,dog,car,0.60,4934_nse_dnn_0.60_car_10_n02814533_78691.JPEG
vgg,4,1095,NaN,dog,car,0.60,4935_nse_dnn_0.60_car_10_n03100240_12545.JPEG
vgg,4,1096,NaN,bird,car,0.60,4936_nse_dnn_0.60_car_10_n04285008_12484.JPEG
vgg,4,1097,NaN,bird,car,0.60,4937_nse_dnn_0.60_car_10_n02814533_83588.JPEG
vgg,4,1098,NaN,dog,car,0.60,4938_nse_dnn_0.60_car_10_n04285008_3440.JPEG
vgg,4,1099,NaN,bird,car,0.60,4939_nse_dnn_0.60_car_10_n04285008_16409.JPEG
vgg,4,1100,NaN,dog,car,0.60,4940_nse_dnn_0.60_car_10_n04285008_8668.JPEG
vgg,4,1101,NaN,bottle,bird,0.60,4941_nse_dnn_0.60_bird_10_n01582220_24058.JPEG
vgg,4,1102,NaN,bottle,bird,0.60,4942_nse_dnn_0.60_bird_10_n01514859_3112.JPEG
vgg,4,1103,NaN,dog,bird,0.60,4943_nse_dnn_0.60_bird_10_n01514859_5824.JPEG
vgg,4,1104,NaN,dog,bird,0.60,4944_nse_dnn_0.60_bird_10_n01616318_2671.JPEG
vgg,4,1105,NaN,dog,bird,0.60,4945_nse_dnn_0.60_bird_10_n01818515_7890.JPEG
vgg,4,1106,NaN,dog,bird,0.60,4946_nse_dnn_0.60_bird_10_n01514859_10653.JPEG
vgg,4,1107,NaN,bottle,bird,0.60,4947_nse_dnn_0.60_bird_10_n02018207_995.JPEG
vgg,4,1108,NaN,dog,bird,0.60,4948_nse_dnn_0.60_bird_10_n01795545_12380.JPEG
vgg,4,1109,NaN,dog,bird,0.60,4949_nse_dnn_0.60_bird_10_n01824575_2319.JPEG
vgg,4,1110,NaN,dog,bird,0.60,4950_nse_dnn_0.60_bird_10_n02017213_14022.JPEG
vgg,4,1111,NaN,bottle,dog,0.60,4951_nse_dnn_0.60_dog_10_n02106662_3692.JPEG
vgg,4,1112,NaN,dog,dog,0.60,4952_nse_dnn_0.60_dog_10_n02099849_1969.JPEG
vgg,4,1113,NaN,dog,dog,0.60,4953_nse_dnn_0.60_dog_10_n02098286_4074.JPEG
vgg,4,1114,NaN,bottle,dog,0.60,4954_nse_dnn_0.60_dog_10_n02093754_7671.JPEG
vgg,4,1115,NaN,dog,dog,0.60,4955_nse_dnn_0.60_dog_10_n02106662_36265.JPEG
vgg,4,1116,NaN,dog,dog,0.60,4956_nse_dnn_0.60_dog_10_n02099601_9913.JPEG
vgg,4,1117,NaN,bottle,dog,0.60,4957_nse_dnn_0.60_dog_10_n02088238_12378.JPEG
vgg,4,1118,NaN,bottle,dog,0.60,4958_nse_dnn_0.60_dog_10_n02102318_114.JPEG
vgg,4,1119,NaN,dog,dog,0.60,4959_nse_dnn_0.60_dog_10_n02088632_1389.JPEG
vgg,4,1120,NaN,bird,dog,0.60,4960_nse_dnn_0.60_dog_10_n02099712_6807.JPEG
vgg,4,1121,NaN,bottle,knife,0.90,4961_nse_dnn_0.90_knife_10_n03041632_21818.JPEG
vgg,4,1122,NaN,bottle,knife,0.90,4962_nse_dnn_0.90_knife_10_n03041632_3101.JPEG
vgg,4,1123,NaN,bird,knife,0.90,4963_nse_dnn_0.90_knife_10_n03041632_29580.JPEG
vgg,4,1124,NaN,bottle,knife,0.90,4964_nse_dnn_0.90_knife_10_n03041632_22190.JPEG
vgg,4,1125,NaN,bottle,knife,0.90,4965_nse_dnn_0.90_knife_10_n03041632_3210.JPEG
vgg,4,1126,NaN,dog,knife,0.90,4966_nse_dnn_0.90_knife_10_n03041632_31483.JPEG
vgg,4,1127,NaN,dog,knife,0.90,4967_nse_dnn_0.90_knife_10_n03041632_11358.JPEG
vgg,4,1128,NaN,bottle,knife,0.90,4968_nse_dnn_0.90_knife_10_n03041632_3326.JPEG
vgg,4,1129,NaN,bottle,knife,0.90,4969_nse_dnn_0.90_knife_10_n03041632_7119.JPEG
vgg,4,1130,NaN,dog,knife,0.90,4970_nse_dnn_0.90_knife_10_n03041632_21723.JPEG
vgg,4,1131,NaN,bird,keyboard,0.90,4971_nse_dnn_0.90_keyboard_10_n04505470_1831.JPEG
vgg,4,1132,NaN,bottle,keyboard,0.90,4972_nse_dnn_0.90_keyboard_10_n03085013_3439.JPEG
vgg,4,1133,NaN,bottle,keyboard,0.90,4973_nse_dnn_0.90_keyboard_10_n04505470_5009.JPEG
vgg,4,1134,NaN,dog,keyboard,0.90,4974_nse_dnn_0.90_keyboard_10_n04505470_5152.JPEG
vgg,4,1135,NaN,dog,keyboard,0.90,4975_nse_dnn_0.90_keyboard_10_n03085013_21602.JPEG
vgg,4,1136,NaN,dog,keyboard,0.90,4976_nse_dnn_0.90_keyboard_10_n04505470_3261.JPEG
vgg,4,1137,NaN,dog,keyboard,0.90,4977_nse_dnn_0.90_keyboard_10_n04505470_10035.JPEG
vgg,4,1138,NaN,bird,keyboard,0.90,4978_nse_dnn_0.90_keyboard_10_n03085013_25875.JPEG
vgg,4,1139,NaN,dog,keyboard,0.90,4979_nse_dnn_0.90_keyboard_10_n03085013_23763.JPEG
vgg,4,1140,NaN,dog,keyboard,0.90,4980_nse_dnn_0.90_keyboard_10_n03085013_13982.JPEG
vgg,4,1141,NaN,dog,elephant,0.90,4981_nse_dnn_0.90_elephant_10_n02504013_6243.JPEG
vgg,4,1142,NaN,bottle,elephant,0.90,4982_nse_dnn_0.90_elephant_10_n02504458_10088.JPEG
vgg,4,1143,NaN,dog,elephant,0.90,4983_nse_dnn_0.90_elephant_10_n02504458_4643.JPEG
vgg,4,1144,NaN,dog,elephant,0.90,4984_nse_dnn_0.90_elephant_10_n02504458_3533.JPEG
vgg,4,1145,NaN,bottle,elephant,0.90,4985_nse_dnn_0.90_elephant_10_n02504458_3757.JPEG
vgg,4,1146,NaN,bottle,elephant,0.90,4986_nse_dnn_0.90_elephant_10_n02504013_5636.JPEG
vgg,4,1147,NaN,bird,elephant,0.90,4987_nse_dnn_0.90_elephant_10_n02504013_4547.JPEG
vgg,4,1148,NaN,dog,elephant,0.90,4988_nse_dnn_0.90_elephant_10_n02504458_3953.JPEG
vgg,4,1149,NaN,bottle,elephant,0.90,4989_nse_dnn_0.90_elephant_10_n02504013_565.JPEG
vgg,4,1150,NaN,bottle,elephant,0.90,4990_nse_dnn_0.90_elephant_10_n02504458_5797.JPEG
vgg,4,1151,NaN,dog,bicycle,0.90,4991_nse_dnn_0.90_bicycle_10_n03792782_7270.JPEG
vgg,4,1152,NaN,dog,bicycle,0.90,4992_nse_dnn_0.90_bicycle_10_n03792782_7269.JPEG
vgg,4,1153,NaN,bird,bicycle,0.90,4993_nse_dnn_0.90_bicycle_10_n03792782_15757.JPEG
vgg,4,1154,NaN,dog,bicycle,0.90,4994_nse_dnn_0.90_bicycle_10_n03792782_77949.JPEG
vgg,4,1155,NaN,dog,bicycle,0.90,4995_nse_dnn_0.90_bicycle_10_n02835271_9000.JPEG
vgg,4,1156,NaN,dog,bicycle,0.90,4996_nse_dnn_0.90_bicycle_10_n02835271_1284.JPEG
vgg,4,1157,NaN,bottle,bicycle,0.90,4997_nse_dnn_0.90_bicycle_10_n03792782_5864.JPEG
vgg,4,1158,NaN,bird,bicycle,0.90,4998_nse_dnn_0.90_bicycle_10_n02835271_17182.JPEG
vgg,4,1159,NaN,bottle,bicycle,0.90,4999_nse_dnn_0.90_bicycle_10_n03792782_4682.JPEG
vgg,4,1160,NaN,bird,bicycle,0.90,5000_nse_dnn_0.90_bicycle_10_n03792782_12257.JPEG
vgg,4,1161,NaN,bird,airplane,0.90,5001_nse_dnn_0.90_airplane_10_n02690373_1306.JPEG
vgg,4,1162,NaN,bird,airplane,0.90,5002_nse_dnn_0.90_airplane_10_n02690373_9680.JPEG
vgg,4,1163,NaN,bottle,airplane,0.90,5003_nse_dnn_0.90_airplane_10_n02690373_7908.JPEG
vgg,4,1164,NaN,dog,airplane,0.90,5004_nse_dnn_0.90_airplane_10_n02690373_3877.JPEG
vgg,4,1165,NaN,dog,airplane,0.90,5005_nse_dnn_0.90_airplane_10_n02690373_1005.JPEG
vgg,4,1166,NaN,bird,airplane,0.90,5006_nse_dnn_0.90_airplane_10_n02690373_8382.JPEG
vgg,4,1167,NaN,dog,airplane,0.90,5007_nse_dnn_0.90_airplane_10_n02690373_10207.JPEG
vgg,4,1168,NaN,dog,airplane,0.90,5008_nse_dnn_0.90_airplane_10_n02690373_5003.JPEG
vgg,4,1169,NaN,bottle,airplane,0.90,5009_nse_dnn_0.90_airplane_10_n02690373_3736.JPEG
vgg,4,1170,NaN,bottle,airplane,0.90,5010_nse_dnn_0.90_airplane_10_n02690373_8631.JPEG
vgg,4,1171,NaN,bird,clock,0.90,5011_nse_dnn_0.90_clock_10_n04548280_1112.JPEG
vgg,4,1172,NaN,dog,clock,0.90,5012_nse_dnn_0.90_clock_10_n02708093_4201.JPEG
vgg,4,1173,NaN,bird,clock,0.90,5013_nse_dnn_0.90_clock_10_n02708093_4391.JPEG
vgg,4,1174,NaN,bottle,clock,0.90,5014_nse_dnn_0.90_clock_10_n02708093_3213.JPEG
vgg,4,1175,NaN,dog,clock,0.90,5015_nse_dnn_0.90_clock_10_n02708093_675.JPEG
vgg,4,1176,NaN,dog,clock,0.90,5016_nse_dnn_0.90_clock_10_n04548280_1323.JPEG
vgg,4,1177,NaN,dog,clock,0.90,5017_nse_dnn_0.90_clock_10_n04548280_117.JPEG
vgg,4,1178,NaN,bottle,clock,0.90,5018_nse_dnn_0.90_clock_10_n02708093_7816.JPEG
vgg,4,1179,NaN,dog,clock,0.90,5019_nse_dnn_0.90_clock_10_n04548280_3208.JPEG
vgg,4,1180,NaN,bottle,clock,0.90,5020_nse_dnn_0.90_clock_10_n03196217_1473.JPEG
vgg,4,1181,NaN,bottle,oven,0.90,5021_nse_dnn_0.90_oven_10_n04111531_326.JPEG
vgg,4,1182,NaN,dog,oven,0.90,5022_nse_dnn_0.90_oven_10_n04111531_22923.JPEG
vgg,4,1183,NaN,bottle,oven,0.90,5023_nse_dnn_0.90_oven_10_n04111531_1989.JPEG
vgg,4,1184,NaN,bird,oven,0.90,5024_nse_dnn_0.90_oven_10_n04111531_14325.JPEG
vgg,4,1185,NaN,dog,oven,0.90,5025_nse_dnn_0.90_oven_10_n04111531_14383.JPEG
vgg,4,1186,NaN,bottle,oven,0.90,5026_nse_dnn_0.90_oven_10_n04111531_797.JPEG
vgg,4,1187,NaN,dog,oven,0.90,5027_nse_dnn_0.90_oven_10_n04111531_5346.JPEG
vgg,4,1188,NaN,bottle,oven,0.90,5028_nse_dnn_0.90_oven_10_n04111531_23907.JPEG
vgg,4,1189,NaN,bottle,oven,0.90,5029_nse_dnn_0.90_oven_10_n04111531_3270.JPEG
vgg,4,1190,NaN,dog,oven,0.90,5030_nse_dnn_0.90_oven_10_n04111531_8238.JPEG
vgg,4,1191,NaN,bird,chair,0.90,5031_nse_dnn_0.90_chair_10_n04099969_4162.JPEG
vgg,4,1192,NaN,bird,chair,0.90,5032_nse_dnn_0.90_chair_10_n04099969_3547.JPEG
vgg,4,1193,NaN,bottle,chair,0.90,5033_nse_dnn_0.90_chair_10_n02791124_2091.JPEG
vgg,4,1194,NaN,bird,chair,0.90,5034_nse_dnn_0.90_chair_10_n03376595_3223.JPEG
vgg,4,1195,NaN,dog,chair,0.90,5035_nse_dnn_0.90_chair_10_n03376595_2916.JPEG
vgg,4,1196,NaN,dog,chair,0.90,5036_nse_dnn_0.90_chair_10_n03376595_7835.JPEG
vgg,4,1197,NaN,bottle,chair,0.90,5037_nse_dnn_0.90_chair_10_n04099969_8021.JPEG
vgg,4,1198,NaN,bottle,chair,0.90,5038_nse_dnn_0.90_chair_10_n03376595_3449.JPEG
vgg,4,1199,NaN,bottle,chair,0.90,5039_nse_dnn_0.90_chair_10_n04429376_14357.JPEG
vgg,4,1200,NaN,dog,chair,0.90,5040_nse_dnn_0.90_chair_10_n04099969_19966.JPEG
vgg,4,1201,NaN,dog,bear,0.90,5041_nse_dnn_0.90_bear_10_n02134418_2187.JPEG
vgg,4,1202,NaN,bird,bear,0.90,5042_nse_dnn_0.90_bear_10_n02133161_1892.JPEG
vgg,4,1203,NaN,dog,bear,0.90,5043_nse_dnn_0.90_bear_10_n02134084_8574.JPEG
vgg,4,1204,NaN,bird,bear,0.90,5044_nse_dnn_0.90_bear_10_n02133161_1105.JPEG
vgg,4,1205,NaN,dog,bear,0.90,5045_nse_dnn_0.90_bear_10_n02133161_1187.JPEG
vgg,4,1206,NaN,bird,bear,0.90,5046_nse_dnn_0.90_bear_10_n02133161_7390.JPEG
vgg,4,1207,NaN,dog,bear,0.90,5047_nse_dnn_0.90_bear_10_n02132136_7164.JPEG
vgg,4,1208,NaN,bottle,bear,0.90,5048_nse_dnn_0.90_bear_10_n02134418_4458.JPEG
vgg,4,1209,NaN,bird,bear,0.90,5049_nse_dnn_0.90_bear_10_n02134418_5452.JPEG
vgg,4,1210,NaN,dog,bear,0.90,5050_nse_dnn_0.90_bear_10_n02132136_8896.JPEG
vgg,4,1211,NaN,bird,boat,0.90,5051_nse_dnn_0.90_boat_10_n03662601_8631.JPEG
vgg,4,1212,NaN,dog,boat,0.90,5052_nse_dnn_0.90_boat_10_n04612504_35043.JPEG
vgg,4,1213,NaN,dog,boat,0.90,5053_nse_dnn_0.90_boat_10_n02951358_3252.JPEG
vgg,4,1214,NaN,bird,boat,0.90,5054_nse_dnn_0.90_boat_10_n02951358_4559.JPEG
vgg,4,1215,NaN,bottle,boat,0.90,5055_nse_dnn_0.90_boat_10_n03344393_8655.JPEG
vgg,4,1216,NaN,bird,boat,0.90,5056_nse_dnn_0.90_boat_10_n03662601_1561.JPEG
vgg,4,1217,NaN,bottle,boat,0.90,5057_nse_dnn_0.90_boat_10_n03662601_17785.JPEG
vgg,4,1218,NaN,bottle,boat,0.90,5058_nse_dnn_0.90_boat_10_n02951358_15730.JPEG
vgg,4,1219,NaN,dog,boat,0.90,5059_nse_dnn_0.90_boat_10_n02951358_26334.JPEG
vgg,4,1220,NaN,bird,boat,0.90,5060_nse_dnn_0.90_boat_10_n04273569_18044.JPEG
vgg,4,1221,NaN,dog,cat,0.90,5061_nse_dnn_0.90_cat_10_n02123159_7560.JPEG
vgg,4,1222,NaN,bottle,cat,0.90,5062_nse_dnn_0.90_cat_10_n02123159_4555.JPEG
vgg,4,1223,NaN,dog,cat,0.90,5063_nse_dnn_0.90_cat_10_n02125311_4180.JPEG
vgg,4,1224,NaN,dog,cat,0.90,5064_nse_dnn_0.90_cat_10_n02123159_3429.JPEG
vgg,4,1225,NaN,dog,cat,0.90,5065_nse_dnn_0.90_cat_10_n02124075_10694.JPEG
vgg,4,1226,NaN,dog,cat,0.90,5066_nse_dnn_0.90_cat_10_n02123045_12890.JPEG
vgg,4,1227,NaN,bird,cat,0.90,5067_nse_dnn_0.90_cat_10_n02123159_6971.JPEG
vgg,4,1228,NaN,bottle,cat,0.90,5068_nse_dnn_0.90_cat_10_n02123045_8571.JPEG
vgg,4,1229,NaN,bird,cat,0.90,5069_nse_dnn_0.90_cat_10_n02123394_7871.JPEG
vgg,4,1230,NaN,bottle,cat,0.90,5070_nse_dnn_0.90_cat_10_n02125311_8369.JPEG
vgg,4,1231,NaN,bottle,bottle,0.90,5071_nse_dnn_0.90_bottle_10_n03983396_11337.JPEG
vgg,4,1232,NaN,bottle,bottle,0.90,5072_nse_dnn_0.90_bottle_10_n03937543_9419.JPEG
vgg,4,1233,NaN,dog,bottle,0.90,5073_nse_dnn_0.90_bottle_10_n04557648_3968.JPEG
vgg,4,1234,NaN,bottle,bottle,0.90,5074_nse_dnn_0.90_bottle_10_n04557648_7810.JPEG
vgg,4,1235,NaN,dog,bottle,0.90,5075_nse_dnn_0.90_bottle_10_n02823428_3530.JPEG
vgg,4,1236,NaN,bottle,bottle,0.90,5076_nse_dnn_0.90_bottle_10_n04591713_3402.JPEG
vgg,4,1237,NaN,dog,bottle,0.90,5077_nse_dnn_0.90_bottle_10_n03983396_9992.JPEG
vgg,4,1238,NaN,dog,bottle,0.90,5078_nse_dnn_0.90_bottle_10_n03937543_5382.JPEG
vgg,4,1239,NaN,dog,bottle,0.90,5079_nse_dnn_0.90_bottle_10_n03937543_3737.JPEG
vgg,4,1240,NaN,dog,bottle,0.90,5080_nse_dnn_0.90_bottle_10_n04557648_2525.JPEG
vgg,4,1241,NaN,dog,truck,0.90,5081_nse_dnn_0.90_truck_10_n04467665_71480.JPEG
vgg,4,1242,NaN,bottle,truck,0.90,5082_nse_dnn_0.90_truck_10_n04467665_59974.JPEG
vgg,4,1243,NaN,dog,truck,0.90,5083_nse_dnn_0.90_truck_10_n03417042_4126.JPEG
vgg,4,1244,NaN,dog,truck,0.90,5084_nse_dnn_0.90_truck_10_n04467665_23119.JPEG
vgg,4,1245,NaN,bird,truck,0.90,5085_nse_dnn_0.90_truck_10_n03796401_4454.JPEG
vgg,4,1246,NaN,dog,truck,0.90,5086_nse_dnn_0.90_truck_10_n03417042_23541.JPEG
vgg,4,1247,NaN,dog,truck,0.90,5087_nse_dnn_0.90_truck_10_n03417042_3398.JPEG
vgg,4,1248,NaN,bottle,truck,0.90,5088_nse_dnn_0.90_truck_10_n03417042_16389.JPEG
vgg,4,1249,NaN,bird,truck,0.90,5089_nse_dnn_0.90_truck_10_n04467665_36215.JPEG
vgg,4,1250,NaN,dog,truck,0.90,5090_nse_dnn_0.90_truck_10_n03417042_10752.JPEG
vgg,4,1251,NaN,bird,car,0.90,5091_nse_dnn_0.90_car_10_n03100240_17768.JPEG
vgg,4,1252,NaN,dog,car,0.90,5092_nse_dnn_0.90_car_10_n03100240_6577.JPEG
vgg,4,1253,NaN,dog,car,0.90,5093_nse_dnn_0.90_car_10_n03100240_3973.JPEG
vgg,4,1254,NaN,dog,car,0.90,5094_nse_dnn_0.90_car_10_n04285008_10297.JPEG
vgg,4,1255,NaN,bird,car,0.90,5095_nse_dnn_0.90_car_10_n04285008_12333.JPEG
vgg,4,1256,NaN,dog,car,0.90,5096_nse_dnn_0.90_car_10_n03100240_23849.JPEG
vgg,4,1257,NaN,dog,car,0.90,5097_nse_dnn_0.90_car_10_n03100240_16992.JPEG
vgg,4,1258,NaN,bird,car,0.90,5098_nse_dnn_0.90_car_10_n03100240_20698.JPEG
vgg,4,1259,NaN,dog,car,0.90,5099_nse_dnn_0.90_car_10_n02814533_40773.JPEG
vgg,4,1260,NaN,dog,car,0.90,5100_nse_dnn_0.90_car_10_n03100240_18559.JPEG
vgg,4,1261,NaN,bottle,bird,0.90,5101_nse_dnn_0.90_bird_10_n02037110_1109.JPEG
vgg,4,1262,NaN,bottle,bird,0.90,5102_nse_dnn_0.90_bird_10_n02018795_5584.JPEG
vgg,4,1263,NaN,bird,bird,0.90,5103_nse_dnn_0.90_bird_10_n01532829_7480.JPEG
