subj,session,trial,rt,object_response,category,condition,imagename
vgg,2,1,NaN,knife,knife,0.00,1281_nse_dnn_0.00_knife_10_n03041632_1884.JPEG
vgg,2,2,NaN,knife,knife,0.00,1282_nse_dnn_0.00_knife_10_n03041632_21859.JPEG
vgg,2,3,NaN,knife,knife,0.00,1283_nse_dnn_0.00_knife_10_n03041632_44230.JPEG
vgg,2,4,NaN,knife,knife,0.00,1284_nse_dnn_0.00_knife_10_n03041632_29862.JPEG
vgg,2,5,NaN,knife,knife,0.00,1285_nse_dnn_0.00_knife_10_n03041632_95293.JPEG
vgg,2,6,NaN,chair,knife,0.00,1286_nse_dnn_0.00_knife_10_n03041632_29125.JPEG
vgg,2,7,NaN,knife,knife,0.00,1287_nse_dnn_0.00_knife_10_n03041632_45312.JPEG
vgg,2,8,NaN,truck,knife,0.00,1288_nse_dnn_0.00_knife_10_n03041632_24060.JPEG
vgg,2,9,NaN,knife,knife,0.00,1289_nse_dnn_0.00_knife_10_n03041632_5102.JPEG
vgg,2,10,NaN,truck,knife,0.00,1290_nse_dnn_0.00_knife_10_n03041632_29858.JPEG
vgg,2,11,NaN,keyboard,keyboard,0.00,1291_nse_dnn_0.00_keyboard_10_n04505470_8148.JPEG
vgg,2,12,NaN,keyboard,keyboard,0.00,1292_nse_dnn_0.00_keyboard_10_n03085013_24649.JPEG
vgg,2,13,NaN,chair,keyboard,0.00,1293_nse_dnn_0.00_keyboard_10_n03085013_23658.JPEG
vgg,2,14,NaN,keyboard,keyboard,0.00,1294_nse_dnn_0.00_keyboard_10_n03085013_24633.JPEG
vgg,2,15,NaN,keyboard,keyboard,0.00,1295_nse_dnn_0.00_keyboard_10_n04505470_4878.JPEG
vgg,2,16,NaN,keyboard,keyboard,0.00,1296_nse_dnn_0.00_keyboard_10_n03085013_6432.JPEG
vgg,2,17,NaN,keyboard,keyboard,0.00,1297_nse_dnn_0.00_keyboard_10_n03085013_5714.JPEG
vgg,2,18,NaN,keyboard,keyboard,0.00,1298_nse_dnn_0.00_keyboard_10_n03085013_23286.JPEG
vgg,2,19,NaN,cat,keyboard,0.00,1299_nse_dnn_0.00_keyboard_10_n04505470_2488.JPEG
vgg,2,20,NaN,keyboard,keyboard,0.00,1300_nse_dnn_0.00_keyboard_10_n03085013_11332.JPEG
vgg,2,21,NaN,elephant,elephant,0.00,1301_nse_dnn_0.00_elephant_10_n02504013_3634.JPEG
vgg,2,22,NaN,elephant,elephant,0.00,1302_nse_dnn_0.00_elephant_10_n02504013_16929.JPEG
vgg,2,23,NaN,elephant,elephant,0.00,1303_nse_dnn_0.00_elephant_10_n02504458_825.JPEG
vgg,2,24,NaN,boat,elephant,0.00,1304_nse_dnn_0.00_elephant_10_n02504458_6202.JPEG
vgg,2,25,NaN,elephant,elephant,0.00,1305_nse_dnn_0.00_elephant_10_n02504458_4165.JPEG
vgg,2,26,NaN,elephant,elephant,0.00,1306_nse_dnn_0.00_elephant_10_n02504013_3569.JPEG
vgg,2,27,NaN,elephant,elephant,0.00,1307_nse_dnn_0.00_elephant_10_n02504458_5384.JPEG
vgg,2,28,NaN,elephant,elephant,0.00,1308_nse_dnn_0.00_elephant_10_n02504458_5436.JPEG
vgg,2,29,NaN,elephant,elephant,0.00,1309_nse_dnn_0.00_elephant_10_n02504013_1576.JPEG
vgg,2,30,NaN,elephant,elephant,0.00,1310_nse_dnn_0.00_elephant_10_n02504458_6618.JPEG
vgg,2,31,NaN,bicycle,bicycle,0.00,1311_nse_dnn_0.00_bicycle_10_n03792782_1802.JPEG
vgg,2,32,NaN,bicycle,bicycle,0.00,1312_nse_dnn_0.00_bicycle_10_n02835271_1691.JPEG
vgg,2,33,NaN,bicycle,bicycle,0.00,1313_nse_dnn_0.00_bicycle_10_n02835271_695.JPEG
vgg,2,34,NaN,bicycle,bicycle,0.00,1314_nse_dnn_0.00_bicycle_10_n03792782_59381.JPEG
vgg,2,35,NaN,bicycle,bicycle,0.00,1315_nse_dnn_0.00_bicycle_10_n03792782_12844.JPEG
vgg,2,36,NaN,bicycle,bicycle,0.00,1316_nse_dnn_0.00_bicycle_10_n02835271_8327.JPEG
vgg,2,37,NaN,bicycle,bicycle,0.00,1317_nse_dnn_0.00_bicycle_10_n02835271_8881.JPEG
vgg,2,38,NaN,bicycle,bicycle,0.00,1318_nse_dnn_0.00_bicycle_10_n03792782_1155.JPEG
vgg,2,39,NaN,bicycle,bicycle,0.00,1319_nse_dnn_0.00_bicycle_10_n02835271_6362.JPEG
vgg,2,40,NaN,bicycle,bicycle,0.00,1320_nse_dnn_0.00_bicycle_10_n03792782_15101.JPEG
vgg,2,41,NaN,airplane,airplane,0.00,1321_nse_dnn_0.00_airplane_10_n02690373_1815.JPEG
vgg,2,42,NaN,airplane,airplane,0.00,1322_nse_dnn_0.00_airplane_10_n02690373_16620.JPEG
vgg,2,43,NaN,airplane,airplane,0.00,1323_nse_dnn_0.00_airplane_10_n02690373_1295.JPEG
vgg,2,44,NaN,airplane,airplane,0.00,1324_nse_dnn_0.00_airplane_10_n02690373_6899.JPEG
vgg,2,45,NaN,airplane,airplane,0.00,1325_nse_dnn_0.00_airplane_10_n02690373_5712.JPEG
vgg,2,46,NaN,airplane,airplane,0.00,1326_nse_dnn_0.00_airplane_10_n02690373_8446.JPEG
vgg,2,47,NaN,airplane,airplane,0.00,1327_nse_dnn_0.00_airplane_10_n02690373_12964.JPEG
vgg,2,48,NaN,airplane,airplane,0.00,1328_nse_dnn_0.00_airplane_10_n02690373_2010.JPEG
vgg,2,49,NaN,airplane,airplane,0.00,1329_nse_dnn_0.00_airplane_10_n02690373_3588.JPEG
vgg,2,50,NaN,airplane,airplane,0.00,1330_nse_dnn_0.00_airplane_10_n02690373_5885.JPEG
vgg,2,51,NaN,clock,clock,0.00,1331_nse_dnn_0.00_clock_10_n04548280_7868.JPEG
vgg,2,52,NaN,clock,clock,0.00,1332_nse_dnn_0.00_clock_10_n02708093_7944.JPEG
vgg,2,53,NaN,clock,clock,0.00,1333_nse_dnn_0.00_clock_10_n02708093_6959.JPEG
vgg,2,54,NaN,clock,clock,0.00,1334_nse_dnn_0.00_clock_10_n03196217_5404.JPEG
vgg,2,55,NaN,clock,clock,0.00,1335_nse_dnn_0.00_clock_10_n02708093_8234.JPEG
vgg,2,56,NaN,clock,clock,0.00,1336_nse_dnn_0.00_clock_10_n04548280_7490.JPEG
vgg,2,57,NaN,clock,clock,0.00,1337_nse_dnn_0.00_clock_10_n03196217_2695.JPEG
vgg,2,58,NaN,clock,clock,0.00,1338_nse_dnn_0.00_clock_10_n03196217_3695.JPEG
vgg,2,59,NaN,clock,clock,0.00,1339_nse_dnn_0.00_clock_10_n03196217_5610.JPEG
vgg,2,60,NaN,clock,clock,0.00,1340_nse_dnn_0.00_clock_10_n03196217_50.JPEG
vgg,2,61,NaN,dog,oven,0.00,1341_nse_dnn_0.00_oven_10_n04111531_12053.JPEG
vgg,2,62,NaN,oven,oven,0.00,1342_nse_dnn_0.00_oven_10_n04111531_7252.JPEG
vgg,2,63,NaN,oven,oven,0.00,1343_nse_dnn_0.00_oven_10_n04111531_12103.JPEG
vgg,2,64,NaN,oven,oven,0.00,1344_nse_dnn_0.00_oven_10_n04111531_1922.JPEG
vgg,2,65,NaN,truck,oven,0.00,1345_nse_dnn_0.00_oven_10_n04111531_24065.JPEG
vgg,2,66,NaN,dog,oven,0.00,1346_nse_dnn_0.00_oven_10_n04111531_12885.JPEG
vgg,2,67,NaN,bottle,oven,0.00,1347_nse_dnn_0.00_oven_10_n04111531_14279.JPEG
vgg,2,68,NaN,bottle,oven,0.00,1348_nse_dnn_0.00_oven_10_n04111531_10403.JPEG
vgg,2,69,NaN,oven,oven,0.00,1349_nse_dnn_0.00_oven_10_n04111531_4331.JPEG
vgg,2,70,NaN,oven,oven,0.00,1350_nse_dnn_0.00_oven_10_n04111531_17781.JPEG
vgg,2,71,NaN,chair,chair,0.00,1351_nse_dnn_0.00_chair_10_n02791124_57.JPEG
vgg,2,72,NaN,chair,chair,0.00,1352_nse_dnn_0.00_chair_10_n03376595_19214.JPEG
vgg,2,73,NaN,chair,chair,0.00,1353_nse_dnn_0.00_chair_10_n03376595_8319.JPEG
vgg,2,74,NaN,chair,chair,0.00,1354_nse_dnn_0.00_chair_10_n02791124_2491.JPEG
vgg,2,75,NaN,chair,chair,0.00,1355_nse_dnn_0.00_chair_10_n03376595_120.JPEG
vgg,2,76,NaN,truck,chair,0.00,1356_nse_dnn_0.00_chair_10_n03376595_2234.JPEG
vgg,2,77,NaN,chair,chair,0.00,1357_nse_dnn_0.00_chair_10_n04099969_15880.JPEG
vgg,2,78,NaN,chair,chair,0.00,1358_nse_dnn_0.00_chair_10_n03376595_5730.JPEG
vgg,2,79,NaN,chair,chair,0.00,1359_nse_dnn_0.00_chair_10_n04429376_22626.JPEG
vgg,2,80,NaN,chair,chair,0.00,1360_nse_dnn_0.00_chair_10_n04099969_7191.JPEG
vgg,2,81,NaN,bear,bear,0.00,1361_nse_dnn_0.00_bear_10_n02134418_751.JPEG
vgg,2,82,NaN,bear,bear,0.00,1362_nse_dnn_0.00_bear_10_n02133161_12304.JPEG
vgg,2,83,NaN,bear,bear,0.00,1363_nse_dnn_0.00_bear_10_n02133161_491.JPEG
vgg,2,84,NaN,bear,bear,0.00,1364_nse_dnn_0.00_bear_10_n02134084_12987.JPEG
vgg,2,85,NaN,bear,bear,0.00,1365_nse_dnn_0.00_bear_10_n02133161_714.JPEG
vgg,2,86,NaN,bear,bear,0.00,1366_nse_dnn_0.00_bear_10_n02132136_9232.JPEG
vgg,2,87,NaN,bear,bear,0.00,1367_nse_dnn_0.00_bear_10_n02134418_822.JPEG
vgg,2,88,NaN,bear,bear,0.00,1368_nse_dnn_0.00_bear_10_n02134418_838.JPEG
vgg,2,89,NaN,bear,bear,0.00,1369_nse_dnn_0.00_bear_10_n02134084_7559.JPEG
vgg,2,90,NaN,bear,bear,0.00,1370_nse_dnn_0.00_bear_10_n02133161_656.JPEG
vgg,2,91,NaN,boat,boat,0.00,1371_nse_dnn_0.00_boat_10_n03662601_1885.JPEG
vgg,2,92,NaN,boat,boat,0.00,1372_nse_dnn_0.00_boat_10_n03662601_18953.JPEG
vgg,2,93,NaN,boat,boat,0.00,1373_nse_dnn_0.00_boat_10_n03344393_6914.JPEG
vgg,2,94,NaN,boat,boat,0.00,1374_nse_dnn_0.00_boat_10_n04273569_6048.JPEG
vgg,2,95,NaN,boat,boat,0.00,1375_nse_dnn_0.00_boat_10_n04612504_13034.JPEG
vgg,2,96,NaN,boat,boat,0.00,1376_nse_dnn_0.00_boat_10_n03662601_25458.JPEG
vgg,2,97,NaN,truck,boat,0.00,1377_nse_dnn_0.00_boat_10_n03662601_6241.JPEG
vgg,2,98,NaN,clock,boat,0.00,1378_nse_dnn_0.00_boat_10_n04273569_247.JPEG
vgg,2,99,NaN,boat,boat,0.00,1379_nse_dnn_0.00_boat_10_n04273569_3465.JPEG
vgg,2,100,NaN,boat,boat,0.00,1380_nse_dnn_0.00_boat_10_n04273569_5119.JPEG
vgg,2,101,NaN,cat,cat,0.00,1381_nse_dnn_0.00_cat_10_n02123597_11877.JPEG
vgg,2,102,NaN,cat,cat,0.00,1382_nse_dnn_0.00_cat_10_n02123394_2289.JPEG
vgg,2,103,NaN,cat,cat,0.00,1383_nse_dnn_0.00_cat_10_n02123394_1136.JPEG
vgg,2,104,NaN,cat,cat,0.00,1384_nse_dnn_0.00_cat_10_n02123045_2286.JPEG
vgg,2,105,NaN,cat,cat,0.00,1385_nse_dnn_0.00_cat_10_n02125311_22884.JPEG
vgg,2,106,NaN,cat,cat,0.00,1386_nse_dnn_0.00_cat_10_n02123045_432.JPEG
vgg,2,107,NaN,cat,cat,0.00,1387_nse_dnn_0.00_cat_10_n02123159_8079.JPEG
vgg,2,108,NaN,cat,cat,0.00,1388_nse_dnn_0.00_cat_10_n02123159_5856.JPEG
vgg,2,109,NaN,cat,cat,0.00,1389_nse_dnn_0.00_cat_10_n02123045_6245.JPEG
vgg,2,110,NaN,cat,cat,0.00,1390_nse_dnn_0.00_cat_10_n02123597_4826.JPEG
vgg,2,111,NaN,bottle,bottle,0.00,1391_nse_dnn_0.00_bottle_10_n03937543_5617.JPEG
vgg,2,112,NaN,bottle,bottle,0.00,1392_nse_dnn_0.00_bottle_10_n04560804_2266.JPEG
vgg,2,113,NaN,bottle,bottle,0.00,1393_nse_dnn_0.00_bottle_10_n03937543_5407.JPEG
vgg,2,114,NaN,bottle,bottle,0.00,1394_nse_dnn_0.00_bottle_10_n02823428_4247.JPEG
vgg,2,115,NaN,bottle,bottle,0.00,1395_nse_dnn_0.00_bottle_10_n04560804_30737.JPEG
vgg,2,116,NaN,bottle,bottle,0.00,1396_nse_dnn_0.00_bottle_10_n03983396_12337.JPEG
vgg,2,117,NaN,bottle,bottle,0.00,1397_nse_dnn_0.00_bottle_10_n04560804_14102.JPEG
vgg,2,118,NaN,bottle,bottle,0.00,1398_nse_dnn_0.00_bottle_10_n03937543_10972.JPEG
vgg,2,119,NaN,bottle,bottle,0.00,1399_nse_dnn_0.00_bottle_10_n04579145_3133.JPEG
vgg,2,120,NaN,bottle,bottle,0.00,1400_nse_dnn_0.00_bottle_10_n04557648_777.JPEG
vgg,2,121,NaN,truck,truck,0.00,1401_nse_dnn_0.00_truck_10_n03417042_802.JPEG
vgg,2,122,NaN,truck,truck,0.00,1402_nse_dnn_0.00_truck_10_n03417042_910.JPEG
vgg,2,123,NaN,truck,truck,0.00,1403_nse_dnn_0.00_truck_10_n03417042_4980.JPEG
vgg,2,124,NaN,truck,truck,0.00,1404_nse_dnn_0.00_truck_10_n04467665_68475.JPEG
vgg,2,125,NaN,truck,truck,0.00,1405_nse_dnn_0.00_truck_10_n03417042_27231.JPEG
vgg,2,126,NaN,truck,truck,0.00,1406_nse_dnn_0.00_truck_10_n03417042_8076.JPEG
vgg,2,127,NaN,truck,truck,0.00,1407_nse_dnn_0.00_truck_10_n03417042_7764.JPEG
vgg,2,128,NaN,truck,truck,0.00,1408_nse_dnn_0.00_truck_10_n03417042_2514.JPEG
vgg,2,129,NaN,truck,truck,0.00,1409_nse_dnn_0.00_truck_10_n03796401_2025.JPEG
vgg,2,130,NaN,truck,truck,0.00,1410_nse_dnn_0.00_truck_10_n04467665_56594.JPEG
vgg,2,131,NaN,car,car,0.00,1411_nse_dnn_0.00_car_10_n04285008_11295.JPEG
vgg,2,132,NaN,car,car,0.00,1412_nse_dnn_0.00_car_10_n02814533_27902.JPEG
vgg,2,133,NaN,car,car,0.00,1413_nse_dnn_0.00_car_10_n04285008_4834.JPEG
vgg,2,134,NaN,car,car,0.00,1414_nse_dnn_0.00_car_10_n03100240_3207.JPEG
vgg,2,135,NaN,car,car,0.00,1415_nse_dnn_0.00_car_10_n04285008_12592.JPEG
vgg,2,136,NaN,car,car,0.00,1416_nse_dnn_0.00_car_10_n02814533_22822.JPEG
vgg,2,137,NaN,car,car,0.00,1417_nse_dnn_0.00_car_10_n03100240_7592.JPEG
vgg,2,138,NaN,car,car,0.00,1418_nse_dnn_0.00_car_10_n03100240_8453.JPEG
vgg,2,139,NaN,car,car,0.00,1419_nse_dnn_0.00_car_10_n03100240_9982.JPEG
vgg,2,140,NaN,car,car,0.00,1420_nse_dnn_0.00_car_10_n02814533_7066.JPEG
vgg,2,141,NaN,bird,bird,0.00,1421_nse_dnn_0.00_bird_10_n01819313_7246.JPEG
vgg,2,142,NaN,bird,bird,0.00,1422_nse_dnn_0.00_bird_10_n01795545_7294.JPEG
vgg,2,143,NaN,bird,bird,0.00,1423_nse_dnn_0.00_bird_10_n02011460_8701.JPEG
vgg,2,144,NaN,bird,bird,0.00,1424_nse_dnn_0.00_bird_10_n01582220_8796.JPEG
vgg,2,145,NaN,bird,bird,0.00,1425_nse_dnn_0.00_bird_10_n01797886_12258.JPEG
vgg,2,146,NaN,bird,bird,0.00,1426_nse_dnn_0.00_bird_10_n02028035_20331.JPEG
vgg,2,147,NaN,bird,bird,0.00,1427_nse_dnn_0.00_bird_10_n02002556_13366.JPEG
vgg,2,148,NaN,bird,bird,0.00,1428_nse_dnn_0.00_bird_10_n01537544_1632.JPEG
vgg,2,149,NaN,bird,bird,0.00,1429_nse_dnn_0.00_bird_10_n01860187_15246.JPEG
vgg,2,150,NaN,bird,bird,0.00,1430_nse_dnn_0.00_bird_10_n01798484_13121.JPEG
vgg,2,151,NaN,dog,dog,0.00,1431_nse_dnn_0.00_dog_10_n02113799_10074.JPEG
vgg,2,152,NaN,dog,dog,0.00,1432_nse_dnn_0.00_dog_10_n02102318_2395.JPEG
vgg,2,153,NaN,dog,dog,0.00,1433_nse_dnn_0.00_dog_10_n02106382_9577.JPEG
vgg,2,154,NaN,dog,dog,0.00,1434_nse_dnn_0.00_dog_10_n02105162_351.JPEG
vgg,2,155,NaN,dog,dog,0.00,1435_nse_dnn_0.00_dog_10_n02092002_9696.JPEG
vgg,2,156,NaN,dog,dog,0.00,1436_nse_dnn_0.00_dog_10_n02099601_5470.JPEG
vgg,2,157,NaN,dog,dog,0.00,1437_nse_dnn_0.00_dog_10_n02093754_3928.JPEG
vgg,2,158,NaN,dog,dog,0.00,1438_nse_dnn_0.00_dog_10_n02094433_22181.JPEG
vgg,2,159,NaN,dog,dog,0.00,1439_nse_dnn_0.00_dog_10_n02093991_193.JPEG
vgg,2,160,NaN,dog,dog,0.00,1440_nse_dnn_0.00_dog_10_n02097474_3347.JPEG
vgg,2,161,NaN,knife,knife,0.03,1441_nse_dnn_0.03_knife_10_n03041632_20832.JPEG
vgg,2,162,NaN,knife,knife,0.03,1442_nse_dnn_0.03_knife_10_n03041632_101810.JPEG
vgg,2,163,NaN,dog,knife,0.03,1443_nse_dnn_0.03_knife_10_n03041632_23087.JPEG
vgg,2,164,NaN,cat,knife,0.03,1444_nse_dnn_0.03_knife_10_n03041632_20662.JPEG
vgg,2,165,NaN,chair,knife,0.03,1445_nse_dnn_0.03_knife_10_n03041632_3005.JPEG
vgg,2,166,NaN,keyboard,knife,0.03,1446_nse_dnn_0.03_knife_10_n03041632_30079.JPEG
vgg,2,167,NaN,knife,knife,0.03,1447_nse_dnn_0.03_knife_10_n03041632_20576.JPEG
vgg,2,168,NaN,dog,knife,0.03,1448_nse_dnn_0.03_knife_10_n03041632_3717.JPEG
vgg,2,169,NaN,knife,knife,0.03,1449_nse_dnn_0.03_knife_10_n03041632_18304.JPEG
vgg,2,170,NaN,knife,knife,0.03,1450_nse_dnn_0.03_knife_10_n03041632_86118.JPEG
vgg,2,171,NaN,truck,keyboard,0.03,1451_nse_dnn_0.03_keyboard_10_n03085013_7588.JPEG
vgg,2,172,NaN,keyboard,keyboard,0.03,1452_nse_dnn_0.03_keyboard_10_n03085013_24362.JPEG
vgg,2,173,NaN,keyboard,keyboard,0.03,1453_nse_dnn_0.03_keyboard_10_n04505470_5147.JPEG
vgg,2,174,NaN,keyboard,keyboard,0.03,1454_nse_dnn_0.03_keyboard_10_n03085013_2073.JPEG
vgg,2,175,NaN,keyboard,keyboard,0.03,1455_nse_dnn_0.03_keyboard_10_n03085013_19547.JPEG
vgg,2,176,NaN,keyboard,keyboard,0.03,1456_nse_dnn_0.03_keyboard_10_n03085013_23254.JPEG
vgg,2,177,NaN,keyboard,keyboard,0.03,1457_nse_dnn_0.03_keyboard_10_n04505470_4505.JPEG
vgg,2,178,NaN,keyboard,keyboard,0.03,1458_nse_dnn_0.03_keyboard_10_n04505470_7335.JPEG
vgg,2,179,NaN,keyboard,keyboard,0.03,1459_nse_dnn_0.03_keyboard_10_n04505470_4492.JPEG
vgg,2,180,NaN,keyboard,keyboard,0.03,1460_nse_dnn_0.03_keyboard_10_n03085013_5579.JPEG
vgg,2,181,NaN,truck,elephant,0.03,1461_nse_dnn_0.03_elephant_10_n02504013_2368.JPEG
vgg,2,182,NaN,elephant,elephant,0.03,1462_nse_dnn_0.03_elephant_10_n02504458_5.JPEG
vgg,2,183,NaN,dog,elephant,0.03,1463_nse_dnn_0.03_elephant_10_n02504013_4485.JPEG
vgg,2,184,NaN,elephant,elephant,0.03,1464_nse_dnn_0.03_elephant_10_n02504458_6.JPEG
vgg,2,185,NaN,elephant,elephant,0.03,1465_nse_dnn_0.03_elephant_10_n02504013_7322.JPEG
vgg,2,186,NaN,elephant,elephant,0.03,1466_nse_dnn_0.03_elephant_10_n02504013_1306.JPEG
vgg,2,187,NaN,boat,elephant,0.03,1467_nse_dnn_0.03_elephant_10_n02504458_11884.JPEG
vgg,2,188,NaN,elephant,elephant,0.03,1468_nse_dnn_0.03_elephant_10_n02504013_3916.JPEG
vgg,2,189,NaN,elephant,elephant,0.03,1469_nse_dnn_0.03_elephant_10_n02504013_3258.JPEG
vgg,2,190,NaN,elephant,elephant,0.03,1470_nse_dnn_0.03_elephant_10_n02504013_3798.JPEG
vgg,2,191,NaN,bicycle,bicycle,0.03,1471_nse_dnn_0.03_bicycle_10_n03792782_7331.JPEG
vgg,2,192,NaN,bicycle,bicycle,0.03,1472_nse_dnn_0.03_bicycle_10_n02835271_3677.JPEG
vgg,2,193,NaN,bicycle,bicycle,0.03,1473_nse_dnn_0.03_bicycle_10_n03792782_29509.JPEG
vgg,2,194,NaN,bicycle,bicycle,0.03,1474_nse_dnn_0.03_bicycle_10_n03792782_11034.JPEG
vgg,2,195,NaN,bicycle,bicycle,0.03,1475_nse_dnn_0.03_bicycle_10_n02835271_8830.JPEG
vgg,2,196,NaN,bicycle,bicycle,0.03,1476_nse_dnn_0.03_bicycle_10_n02835271_13551.JPEG
vgg,2,197,NaN,bicycle,bicycle,0.03,1477_nse_dnn_0.03_bicycle_10_n03792782_32341.JPEG
vgg,2,198,NaN,bicycle,bicycle,0.03,1478_nse_dnn_0.03_bicycle_10_n03792782_10638.JPEG
vgg,2,199,NaN,bicycle,bicycle,0.03,1479_nse_dnn_0.03_bicycle_10_n02835271_10822.JPEG
vgg,2,200,NaN,bicycle,bicycle,0.03,1480_nse_dnn_0.03_bicycle_10_n03792782_7657.JPEG
vgg,2,201,NaN,airplane,airplane,0.03,1481_nse_dnn_0.03_airplane_10_n02690373_2941.JPEG
vgg,2,202,NaN,airplane,airplane,0.03,1482_nse_dnn_0.03_airplane_10_n02690373_1044.JPEG
vgg,2,203,NaN,airplane,airplane,0.03,1483_nse_dnn_0.03_airplane_10_n02690373_5632.JPEG
vgg,2,204,NaN,airplane,airplane,0.03,1484_nse_dnn_0.03_airplane_10_n02690373_2724.JPEG
vgg,2,205,NaN,airplane,airplane,0.03,1485_nse_dnn_0.03_airplane_10_n02690373_7530.JPEG
vgg,2,206,NaN,airplane,airplane,0.03,1486_nse_dnn_0.03_airplane_10_n02690373_7718.JPEG
vgg,2,207,NaN,airplane,airplane,0.03,1487_nse_dnn_0.03_airplane_10_n02690373_10455.JPEG
vgg,2,208,NaN,airplane,airplane,0.03,1488_nse_dnn_0.03_airplane_10_n02690373_4066.JPEG
vgg,2,209,NaN,airplane,airplane,0.03,1489_nse_dnn_0.03_airplane_10_n02690373_18845.JPEG
vgg,2,210,NaN,airplane,airplane,0.03,1490_nse_dnn_0.03_airplane_10_n02690373_2068.JPEG
vgg,2,211,NaN,clock,clock,0.03,1491_nse_dnn_0.03_clock_10_n04548280_487.JPEG
vgg,2,212,NaN,clock,clock,0.03,1492_nse_dnn_0.03_clock_10_n04548280_5286.JPEG
vgg,2,213,NaN,truck,clock,0.03,1493_nse_dnn_0.03_clock_10_n02708093_7143.JPEG
vgg,2,214,NaN,clock,clock,0.03,1494_nse_dnn_0.03_clock_10_n02708093_7105.JPEG
vgg,2,215,NaN,clock,clock,0.03,1495_nse_dnn_0.03_clock_10_n03196217_4541.JPEG
vgg,2,216,NaN,clock,clock,0.03,1496_nse_dnn_0.03_clock_10_n02708093_2778.JPEG
vgg,2,217,NaN,clock,clock,0.03,1497_nse_dnn_0.03_clock_10_n03196217_4840.JPEG
vgg,2,218,NaN,clock,clock,0.03,1498_nse_dnn_0.03_clock_10_n04548280_1438.JPEG
vgg,2,219,NaN,clock,clock,0.03,1499_nse_dnn_0.03_clock_10_n02708093_1701.JPEG
vgg,2,220,NaN,clock,clock,0.03,1500_nse_dnn_0.03_clock_10_n02708093_483.JPEG
vgg,2,221,NaN,truck,oven,0.03,1501_nse_dnn_0.03_oven_10_n04111531_6899.JPEG
vgg,2,222,NaN,oven,oven,0.03,1502_nse_dnn_0.03_oven_10_n04111531_9304.JPEG
vgg,2,223,NaN,bottle,oven,0.03,1503_nse_dnn_0.03_oven_10_n04111531_689.JPEG
vgg,2,224,NaN,oven,oven,0.03,1504_nse_dnn_0.03_oven_10_n04111531_3126.JPEG
vgg,2,225,NaN,oven,oven,0.03,1505_nse_dnn_0.03_oven_10_n04111531_10749.JPEG
vgg,2,226,NaN,oven,oven,0.03,1506_nse_dnn_0.03_oven_10_n04111531_12308.JPEG
vgg,2,227,NaN,oven,oven,0.03,1507_nse_dnn_0.03_oven_10_n04111531_11260.JPEG
vgg,2,228,NaN,truck,oven,0.03,1508_nse_dnn_0.03_oven_10_n04111531_498.JPEG
vgg,2,229,NaN,oven,oven,0.03,1509_nse_dnn_0.03_oven_10_n04111531_2650.JPEG
vgg,2,230,NaN,truck,oven,0.03,1510_nse_dnn_0.03_oven_10_n04111531_2937.JPEG
vgg,2,231,NaN,chair,chair,0.03,1511_nse_dnn_0.03_chair_10_n04099969_4049.JPEG
vgg,2,232,NaN,chair,chair,0.03,1512_nse_dnn_0.03_chair_10_n04099969_24309.JPEG
vgg,2,233,NaN,chair,chair,0.03,1513_nse_dnn_0.03_chair_10_n03376595_4826.JPEG
vgg,2,234,NaN,chair,chair,0.03,1514_nse_dnn_0.03_chair_10_n04099969_3900.JPEG
vgg,2,235,NaN,chair,chair,0.03,1515_nse_dnn_0.03_chair_10_n03376595_15468.JPEG
vgg,2,236,NaN,chair,chair,0.03,1516_nse_dnn_0.03_chair_10_n04099969_37247.JPEG
vgg,2,237,NaN,chair,chair,0.03,1517_nse_dnn_0.03_chair_10_n02791124_1986.JPEG
vgg,2,238,NaN,chair,chair,0.03,1518_nse_dnn_0.03_chair_10_n03376595_16362.JPEG
vgg,2,239,NaN,clock,chair,0.03,1519_nse_dnn_0.03_chair_10_n03376595_9610.JPEG
vgg,2,240,NaN,chair,chair,0.03,1520_nse_dnn_0.03_chair_10_n04099969_8507.JPEG
vgg,2,241,NaN,bear,bear,0.03,1521_nse_dnn_0.03_bear_10_n02134418_3942.JPEG
vgg,2,242,NaN,bear,bear,0.03,1522_nse_dnn_0.03_bear_10_n02133161_14053.JPEG
vgg,2,243,NaN,bear,bear,0.03,1523_nse_dnn_0.03_bear_10_n02134084_1694.JPEG
vgg,2,244,NaN,bear,bear,0.03,1524_nse_dnn_0.03_bear_10_n02133161_19341.JPEG
vgg,2,245,NaN,bear,bear,0.03,1525_nse_dnn_0.03_bear_10_n02132136_4021.JPEG
vgg,2,246,NaN,bear,bear,0.03,1526_nse_dnn_0.03_bear_10_n02132136_24002.JPEG
vgg,2,247,NaN,bear,bear,0.03,1527_nse_dnn_0.03_bear_10_n02134084_1406.JPEG
vgg,2,248,NaN,bear,bear,0.03,1528_nse_dnn_0.03_bear_10_n02132136_30356.JPEG
vgg,2,249,NaN,bear,bear,0.03,1529_nse_dnn_0.03_bear_10_n02134418_3756.JPEG
vgg,2,250,NaN,bear,bear,0.03,1530_nse_dnn_0.03_bear_10_n02133161_16115.JPEG
vgg,2,251,NaN,boat,boat,0.03,1531_nse_dnn_0.03_boat_10_n04612504_16016.JPEG
vgg,2,252,NaN,boat,boat,0.03,1532_nse_dnn_0.03_boat_10_n03344393_15744.JPEG
vgg,2,253,NaN,boat,boat,0.03,1533_nse_dnn_0.03_boat_10_n02951358_11778.JPEG
vgg,2,254,NaN,truck,boat,0.03,1534_nse_dnn_0.03_boat_10_n04612504_1500.JPEG
vgg,2,255,NaN,boat,boat,0.03,1535_nse_dnn_0.03_boat_10_n02951358_4311.JPEG
vgg,2,256,NaN,boat,boat,0.03,1536_nse_dnn_0.03_boat_10_n04273569_4136.JPEG
vgg,2,257,NaN,boat,boat,0.03,1537_nse_dnn_0.03_boat_10_n02951358_26579.JPEG
vgg,2,258,NaN,boat,boat,0.03,1538_nse_dnn_0.03_boat_10_n03662601_30161.JPEG
vgg,2,259,NaN,boat,boat,0.03,1539_nse_dnn_0.03_boat_10_n03344393_1506.JPEG
vgg,2,260,NaN,boat,boat,0.03,1540_nse_dnn_0.03_boat_10_n02951358_10017.JPEG
vgg,2,261,NaN,cat,cat,0.03,1541_nse_dnn_0.03_cat_10_n02123597_6864.JPEG
vgg,2,262,NaN,cat,cat,0.03,1542_nse_dnn_0.03_cat_10_n02124075_1430.JPEG
vgg,2,263,NaN,cat,cat,0.03,1543_nse_dnn_0.03_cat_10_n02125311_19819.JPEG
vgg,2,264,NaN,cat,cat,0.03,1544_nse_dnn_0.03_cat_10_n02123045_12655.JPEG
vgg,2,265,NaN,cat,cat,0.03,1545_nse_dnn_0.03_cat_10_n02123597_8523.JPEG
vgg,2,266,NaN,cat,cat,0.03,1546_nse_dnn_0.03_cat_10_n02123394_730.JPEG
vgg,2,267,NaN,cat,cat,0.03,1547_nse_dnn_0.03_cat_10_n02123597_1426.JPEG
vgg,2,268,NaN,cat,cat,0.03,1548_nse_dnn_0.03_cat_10_n02125311_9061.JPEG
vgg,2,269,NaN,clock,cat,0.03,1549_nse_dnn_0.03_cat_10_n02123597_5049.JPEG
vgg,2,270,NaN,cat,cat,0.03,1550_nse_dnn_0.03_cat_10_n02123597_14725.JPEG
vgg,2,271,NaN,bottle,bottle,0.03,1551_nse_dnn_0.03_bottle_10_n03983396_1856.JPEG
vgg,2,272,NaN,bottle,bottle,0.03,1552_nse_dnn_0.03_bottle_10_n04591713_2666.JPEG
vgg,2,273,NaN,bottle,bottle,0.03,1553_nse_dnn_0.03_bottle_10_n04591713_5295.JPEG
vgg,2,274,NaN,bottle,bottle,0.03,1554_nse_dnn_0.03_bottle_10_n03937543_11284.JPEG
vgg,2,275,NaN,bottle,bottle,0.03,1555_nse_dnn_0.03_bottle_10_n04591713_6704.JPEG
vgg,2,276,NaN,bottle,bottle,0.03,1556_nse_dnn_0.03_bottle_10_n02823428_4623.JPEG
vgg,2,277,NaN,bottle,bottle,0.03,1557_nse_dnn_0.03_bottle_10_n03983396_5694.JPEG
vgg,2,278,NaN,chair,bottle,0.03,1558_nse_dnn_0.03_bottle_10_n04591713_3020.JPEG
vgg,2,279,NaN,bottle,bottle,0.03,1559_nse_dnn_0.03_bottle_10_n04591713_4344.JPEG
vgg,2,280,NaN,bottle,bottle,0.03,1560_nse_dnn_0.03_bottle_10_n02823428_14023.JPEG
vgg,2,281,NaN,chair,truck,0.03,1561_nse_dnn_0.03_truck_10_n04467665_22974.JPEG
vgg,2,282,NaN,truck,truck,0.03,1562_nse_dnn_0.03_truck_10_n04467665_37526.JPEG
vgg,2,283,NaN,truck,truck,0.03,1563_nse_dnn_0.03_truck_10_n03417042_6317.JPEG
vgg,2,284,NaN,truck,truck,0.03,1564_nse_dnn_0.03_truck_10_n03417042_3907.JPEG
vgg,2,285,NaN,truck,truck,0.03,1565_nse_dnn_0.03_truck_10_n03796401_6607.JPEG
vgg,2,286,NaN,truck,truck,0.03,1566_nse_dnn_0.03_truck_10_n03417042_22866.JPEG
vgg,2,287,NaN,truck,truck,0.03,1567_nse_dnn_0.03_truck_10_n04467665_32885.JPEG
vgg,2,288,NaN,truck,truck,0.03,1568_nse_dnn_0.03_truck_10_n04467665_37152.JPEG
vgg,2,289,NaN,truck,truck,0.03,1569_nse_dnn_0.03_truck_10_n04467665_69440.JPEG
vgg,2,290,NaN,truck,truck,0.03,1570_nse_dnn_0.03_truck_10_n03796401_3026.JPEG
vgg,2,291,NaN,truck,car,0.03,1571_nse_dnn_0.03_car_10_n04285008_9002.JPEG
vgg,2,292,NaN,car,car,0.03,1572_nse_dnn_0.03_car_10_n03100240_2255.JPEG
vgg,2,293,NaN,truck,car,0.03,1573_nse_dnn_0.03_car_10_n03100240_3310.JPEG
vgg,2,294,NaN,car,car,0.03,1574_nse_dnn_0.03_car_10_n03100240_12714.JPEG
vgg,2,295,NaN,truck,car,0.03,1575_nse_dnn_0.03_car_10_n03100240_9633.JPEG
vgg,2,296,NaN,car,car,0.03,1576_nse_dnn_0.03_car_10_n02814533_30383.JPEG
vgg,2,297,NaN,truck,car,0.03,1577_nse_dnn_0.03_car_10_n02814533_5663.JPEG
vgg,2,298,NaN,car,car,0.03,1578_nse_dnn_0.03_car_10_n04285008_9270.JPEG
vgg,2,299,NaN,car,car,0.03,1579_nse_dnn_0.03_car_10_n04285008_15917.JPEG
vgg,2,300,NaN,car,car,0.03,1580_nse_dnn_0.03_car_10_n04285008_1156.JPEG
vgg,2,301,NaN,bird,bird,0.03,1581_nse_dnn_0.03_bird_10_n01819313_2154.JPEG
vgg,2,302,NaN,bird,bird,0.03,1582_nse_dnn_0.03_bird_10_n02056570_9456.JPEG
vgg,2,303,NaN,bird,bird,0.03,1583_nse_dnn_0.03_bird_10_n01531178_57776.JPEG
vgg,2,304,NaN,bird,bird,0.03,1584_nse_dnn_0.03_bird_10_n02018795_2311.JPEG
vgg,2,305,NaN,bird,bird,0.03,1585_nse_dnn_0.03_bird_10_n01795545_6114.JPEG
vgg,2,306,NaN,bird,bird,0.03,1586_nse_dnn_0.03_bird_10_n01829413_13211.JPEG
vgg,2,307,NaN,bird,bird,0.03,1587_nse_dnn_0.03_bird_10_n02013706_1335.JPEG
vgg,2,308,NaN,bird,bird,0.03,1588_nse_dnn_0.03_bird_10_n01514859_5058.JPEG
vgg,2,309,NaN,bird,bird,0.03,1589_nse_dnn_0.03_bird_10_n02018207_9404.JPEG
vgg,2,310,NaN,bird,bird,0.03,1590_nse_dnn_0.03_bird_10_n02018795_5876.JPEG
vgg,2,311,NaN,chair,dog,0.03,1591_nse_dnn_0.03_dog_10_n02107683_376.JPEG
vgg,2,312,NaN,dog,dog,0.03,1592_nse_dnn_0.03_dog_10_n02091831_2751.JPEG
vgg,2,313,NaN,dog,dog,0.03,1593_nse_dnn_0.03_dog_10_n02113978_3799.JPEG
vgg,2,314,NaN,dog,dog,0.03,1594_nse_dnn_0.03_dog_10_n02099429_3400.JPEG
vgg,2,315,NaN,dog,dog,0.03,1595_nse_dnn_0.03_dog_10_n02106030_7689.JPEG
vgg,2,316,NaN,dog,dog,0.03,1596_nse_dnn_0.03_dog_10_n02094258_4691.JPEG
vgg,2,317,NaN,dog,dog,0.03,1597_nse_dnn_0.03_dog_10_n02090721_6330.JPEG
vgg,2,318,NaN,cat,dog,0.03,1598_nse_dnn_0.03_dog_10_n02107142_3327.JPEG
vgg,2,319,NaN,dog,dog,0.03,1599_nse_dnn_0.03_dog_10_n02099429_5374.JPEG
vgg,2,320,NaN,dog,dog,0.03,1600_nse_dnn_0.03_dog_10_n02105505_819.JPEG
vgg,2,321,NaN,boat,knife,0.05,1601_nse_dnn_0.05_knife_10_n03041632_44019.JPEG
vgg,2,322,NaN,knife,knife,0.05,1602_nse_dnn_0.05_knife_10_n03041632_5640.JPEG
vgg,2,323,NaN,dog,knife,0.05,1603_nse_dnn_0.05_knife_10_n03041632_92637.JPEG
vgg,2,324,NaN,clock,knife,0.05,1604_nse_dnn_0.05_knife_10_n03041632_29684.JPEG
vgg,2,325,NaN,knife,knife,0.05,1605_nse_dnn_0.05_knife_10_n03041632_15299.JPEG
vgg,2,326,NaN,chair,knife,0.05,1606_nse_dnn_0.05_knife_10_n03041632_18995.JPEG
vgg,2,327,NaN,dog,knife,0.05,1607_nse_dnn_0.05_knife_10_n03041632_4879.JPEG
vgg,2,328,NaN,dog,knife,0.05,1608_nse_dnn_0.05_knife_10_n03041632_22214.JPEG
vgg,2,329,NaN,bottle,knife,0.05,1609_nse_dnn_0.05_knife_10_n03041632_105081.JPEG
vgg,2,330,NaN,clock,knife,0.05,1610_nse_dnn_0.05_knife_10_n03041632_30248.JPEG
vgg,2,331,NaN,keyboard,keyboard,0.05,1611_nse_dnn_0.05_keyboard_10_n04505470_989.JPEG
vgg,2,332,NaN,keyboard,keyboard,0.05,1612_nse_dnn_0.05_keyboard_10_n04505470_4627.JPEG
vgg,2,333,NaN,keyboard,keyboard,0.05,1613_nse_dnn_0.05_keyboard_10_n04505470_4636.JPEG
vgg,2,334,NaN,keyboard,keyboard,0.05,1614_nse_dnn_0.05_keyboard_10_n04505470_4490.JPEG
vgg,2,335,NaN,keyboard,keyboard,0.05,1615_nse_dnn_0.05_keyboard_10_n03085013_23267.JPEG
vgg,2,336,NaN,clock,keyboard,0.05,1616_nse_dnn_0.05_keyboard_10_n03085013_6963.JPEG
vgg,2,337,NaN,keyboard,keyboard,0.05,1617_nse_dnn_0.05_keyboard_10_n03085013_10659.JPEG
vgg,2,338,NaN,keyboard,keyboard,0.05,1618_nse_dnn_0.05_keyboard_10_n03085013_21148.JPEG
vgg,2,339,NaN,keyboard,keyboard,0.05,1619_nse_dnn_0.05_keyboard_10_n03085013_7091.JPEG
vgg,2,340,NaN,keyboard,keyboard,0.05,1620_nse_dnn_0.05_keyboard_10_n03085013_20220.JPEG
vgg,2,341,NaN,elephant,elephant,0.05,1621_nse_dnn_0.05_elephant_10_n02504458_4849.JPEG
vgg,2,342,NaN,elephant,elephant,0.05,1622_nse_dnn_0.05_elephant_10_n02504458_2900.JPEG
vgg,2,343,NaN,elephant,elephant,0.05,1623_nse_dnn_0.05_elephant_10_n02504013_15866.JPEG
vgg,2,344,NaN,dog,elephant,0.05,1624_nse_dnn_0.05_elephant_10_n02504013_4523.JPEG
vgg,2,345,NaN,elephant,elephant,0.05,1625_nse_dnn_0.05_elephant_10_n02504013_2968.JPEG
vgg,2,346,NaN,elephant,elephant,0.05,1626_nse_dnn_0.05_elephant_10_n02504458_7831.JPEG
vgg,2,347,NaN,elephant,elephant,0.05,1627_nse_dnn_0.05_elephant_10_n02504458_2103.JPEG
vgg,2,348,NaN,elephant,elephant,0.05,1628_nse_dnn_0.05_elephant_10_n02504013_4044.JPEG
vgg,2,349,NaN,elephant,elephant,0.05,1629_nse_dnn_0.05_elephant_10_n02504013_7883.JPEG
vgg,2,350,NaN,elephant,elephant,0.05,1630_nse_dnn_0.05_elephant_10_n02504458_12352.JPEG
vgg,2,351,NaN,bicycle,bicycle,0.05,1631_nse_dnn_0.05_bicycle_10_n03792782_16837.JPEG
vgg,2,352,NaN,bicycle,bicycle,0.05,1632_nse_dnn_0.05_bicycle_10_n02835271_8034.JPEG
vgg,2,353,NaN,bicycle,bicycle,0.05,1633_nse_dnn_0.05_bicycle_10_n02835271_5602.JPEG
vgg,2,354,NaN,bicycle,bicycle,0.05,1634_nse_dnn_0.05_bicycle_10_n02835271_8521.JPEG
vgg,2,355,NaN,bicycle,bicycle,0.05,1635_nse_dnn_0.05_bicycle_10_n03792782_3333.JPEG
vgg,2,356,NaN,bicycle,bicycle,0.05,1636_nse_dnn_0.05_bicycle_10_n02835271_13542.JPEG
vgg,2,357,NaN,bicycle,bicycle,0.05,1637_nse_dnn_0.05_bicycle_10_n03792782_52540.JPEG
vgg,2,358,NaN,bicycle,bicycle,0.05,1638_nse_dnn_0.05_bicycle_10_n03792782_2267.JPEG
vgg,2,359,NaN,bicycle,bicycle,0.05,1639_nse_dnn_0.05_bicycle_10_n03792782_51838.JPEG
vgg,2,360,NaN,bicycle,bicycle,0.05,1640_nse_dnn_0.05_bicycle_10_n03792782_1933.JPEG
vgg,2,361,NaN,car,airplane,0.05,1641_nse_dnn_0.05_airplane_10_n02690373_181.JPEG
vgg,2,362,NaN,airplane,airplane,0.05,1642_nse_dnn_0.05_airplane_10_n02690373_1828.JPEG
vgg,2,363,NaN,airplane,airplane,0.05,1643_nse_dnn_0.05_airplane_10_n02690373_971.JPEG
vgg,2,364,NaN,airplane,airplane,0.05,1644_nse_dnn_0.05_airplane_10_n02690373_8350.JPEG
vgg,2,365,NaN,airplane,airplane,0.05,1645_nse_dnn_0.05_airplane_10_n02690373_10374.JPEG
vgg,2,366,NaN,airplane,airplane,0.05,1646_nse_dnn_0.05_airplane_10_n02690373_4691.JPEG
vgg,2,367,NaN,airplane,airplane,0.05,1647_nse_dnn_0.05_airplane_10_n02690373_6362.JPEG
vgg,2,368,NaN,airplane,airplane,0.05,1648_nse_dnn_0.05_airplane_10_n02690373_4866.JPEG
vgg,2,369,NaN,airplane,airplane,0.05,1649_nse_dnn_0.05_airplane_10_n02690373_9743.JPEG
vgg,2,370,NaN,clock,airplane,0.05,1650_nse_dnn_0.05_airplane_10_n02690373_736.JPEG
vgg,2,371,NaN,clock,clock,0.05,1651_nse_dnn_0.05_clock_10_n03196217_7634.JPEG
vgg,2,372,NaN,clock,clock,0.05,1652_nse_dnn_0.05_clock_10_n03196217_8070.JPEG
vgg,2,373,NaN,clock,clock,0.05,1653_nse_dnn_0.05_clock_10_n02708093_7535.JPEG
vgg,2,374,NaN,clock,clock,0.05,1654_nse_dnn_0.05_clock_10_n04548280_3128.JPEG
vgg,2,375,NaN,clock,clock,0.05,1655_nse_dnn_0.05_clock_10_n04548280_9218.JPEG
vgg,2,376,NaN,clock,clock,0.05,1656_nse_dnn_0.05_clock_10_n04548280_2170.JPEG
vgg,2,377,NaN,clock,clock,0.05,1657_nse_dnn_0.05_clock_10_n03196217_3100.JPEG
vgg,2,378,NaN,clock,clock,0.05,1658_nse_dnn_0.05_clock_10_n03196217_6467.JPEG
vgg,2,379,NaN,clock,clock,0.05,1659_nse_dnn_0.05_clock_10_n02708093_9.JPEG
vgg,2,380,NaN,clock,clock,0.05,1660_nse_dnn_0.05_clock_10_n02708093_3532.JPEG
vgg,2,381,NaN,cat,oven,0.05,1661_nse_dnn_0.05_oven_10_n04111531_2456.JPEG
vgg,2,382,NaN,dog,oven,0.05,1662_nse_dnn_0.05_oven_10_n04111531_10446.JPEG
vgg,2,383,NaN,oven,oven,0.05,1663_nse_dnn_0.05_oven_10_n04111531_6629.JPEG
vgg,2,384,NaN,dog,oven,0.05,1664_nse_dnn_0.05_oven_10_n04111531_21931.JPEG
vgg,2,385,NaN,truck,oven,0.05,1665_nse_dnn_0.05_oven_10_n04111531_11669.JPEG
vgg,2,386,NaN,clock,oven,0.05,1666_nse_dnn_0.05_oven_10_n04111531_21173.JPEG
vgg,2,387,NaN,oven,oven,0.05,1667_nse_dnn_0.05_oven_10_n04111531_10583.JPEG
vgg,2,388,NaN,dog,oven,0.05,1668_nse_dnn_0.05_oven_10_n04111531_8687.JPEG
vgg,2,389,NaN,clock,oven,0.05,1669_nse_dnn_0.05_oven_10_n04111531_8421.JPEG
vgg,2,390,NaN,oven,oven,0.05,1670_nse_dnn_0.05_oven_10_n04111531_4662.JPEG
vgg,2,391,NaN,chair,chair,0.05,1671_nse_dnn_0.05_chair_10_n04429376_3468.JPEG
vgg,2,392,NaN,chair,chair,0.05,1672_nse_dnn_0.05_chair_10_n04099969_3161.JPEG
vgg,2,393,NaN,chair,chair,0.05,1673_nse_dnn_0.05_chair_10_n03376595_10873.JPEG
vgg,2,394,NaN,chair,chair,0.05,1674_nse_dnn_0.05_chair_10_n04099969_52.JPEG
vgg,2,395,NaN,chair,chair,0.05,1675_nse_dnn_0.05_chair_10_n03376595_14087.JPEG
vgg,2,396,NaN,chair,chair,0.05,1676_nse_dnn_0.05_chair_10_n04099969_19605.JPEG
vgg,2,397,NaN,chair,chair,0.05,1677_nse_dnn_0.05_chair_10_n04099969_19411.JPEG
vgg,2,398,NaN,chair,chair,0.05,1678_nse_dnn_0.05_chair_10_n04099969_2408.JPEG
vgg,2,399,NaN,chair,chair,0.05,1679_nse_dnn_0.05_chair_10_n03376595_262.JPEG
vgg,2,400,NaN,chair,chair,0.05,1680_nse_dnn_0.05_chair_10_n02791124_807.JPEG
vgg,2,401,NaN,bear,bear,0.05,1681_nse_dnn_0.05_bear_10_n02132136_26027.JPEG
vgg,2,402,NaN,dog,bear,0.05,1682_nse_dnn_0.05_bear_10_n02134418_1967.JPEG
vgg,2,403,NaN,bear,bear,0.05,1683_nse_dnn_0.05_bear_10_n02134084_2406.JPEG
vgg,2,404,NaN,bear,bear,0.05,1684_nse_dnn_0.05_bear_10_n02132136_5367.JPEG
vgg,2,405,NaN,boat,bear,0.05,1685_nse_dnn_0.05_bear_10_n02134418_1330.JPEG
vgg,2,406,NaN,bear,bear,0.05,1686_nse_dnn_0.05_bear_10_n02132136_20883.JPEG
vgg,2,407,NaN,chair,bear,0.05,1687_nse_dnn_0.05_bear_10_n02134084_4590.JPEG
vgg,2,408,NaN,dog,bear,0.05,1688_nse_dnn_0.05_bear_10_n02133161_7173.JPEG
vgg,2,409,NaN,cat,bear,0.05,1689_nse_dnn_0.05_bear_10_n02134084_6049.JPEG
vgg,2,410,NaN,bear,bear,0.05,1690_nse_dnn_0.05_bear_10_n02133161_3766.JPEG
vgg,2,411,NaN,boat,boat,0.05,1691_nse_dnn_0.05_boat_10_n03344393_7614.JPEG
vgg,2,412,NaN,boat,boat,0.05,1692_nse_dnn_0.05_boat_10_n03344393_9235.JPEG
vgg,2,413,NaN,boat,boat,0.05,1693_nse_dnn_0.05_boat_10_n04612504_13309.JPEG
vgg,2,414,NaN,boat,boat,0.05,1694_nse_dnn_0.05_boat_10_n03344393_2142.JPEG
vgg,2,415,NaN,boat,boat,0.05,1695_nse_dnn_0.05_boat_10_n03344393_728.JPEG
vgg,2,416,NaN,boat,boat,0.05,1696_nse_dnn_0.05_boat_10_n04273569_31194.JPEG
vgg,2,417,NaN,boat,boat,0.05,1697_nse_dnn_0.05_boat_10_n03344393_13085.JPEG
vgg,2,418,NaN,boat,boat,0.05,1698_nse_dnn_0.05_boat_10_n04273569_32553.JPEG
vgg,2,419,NaN,boat,boat,0.05,1699_nse_dnn_0.05_boat_10_n03344393_5757.JPEG
vgg,2,420,NaN,boat,boat,0.05,1700_nse_dnn_0.05_boat_10_n02951358_35213.JPEG
vgg,2,421,NaN,cat,cat,0.05,1701_nse_dnn_0.05_cat_10_n02124075_12229.JPEG
vgg,2,422,NaN,cat,cat,0.05,1702_nse_dnn_0.05_cat_10_n02125311_16840.JPEG
vgg,2,423,NaN,cat,cat,0.05,1703_nse_dnn_0.05_cat_10_n02123045_13363.JPEG
vgg,2,424,NaN,cat,cat,0.05,1704_nse_dnn_0.05_cat_10_n02123394_635.JPEG
vgg,2,425,NaN,cat,cat,0.05,1705_nse_dnn_0.05_cat_10_n02123045_14135.JPEG
vgg,2,426,NaN,cat,cat,0.05,1706_nse_dnn_0.05_cat_10_n02125311_18483.JPEG
vgg,2,427,NaN,cat,cat,0.05,1707_nse_dnn_0.05_cat_10_n02123159_1416.JPEG
vgg,2,428,NaN,cat,cat,0.05,1708_nse_dnn_0.05_cat_10_n02123597_222.JPEG
vgg,2,429,NaN,cat,cat,0.05,1709_nse_dnn_0.05_cat_10_n02123159_2137.JPEG
vgg,2,430,NaN,cat,cat,0.05,1710_nse_dnn_0.05_cat_10_n02124075_1819.JPEG
vgg,2,431,NaN,bottle,bottle,0.05,1711_nse_dnn_0.05_bottle_10_n04557648_2601.JPEG
vgg,2,432,NaN,bottle,bottle,0.05,1712_nse_dnn_0.05_bottle_10_n03983396_5911.JPEG
vgg,2,433,NaN,bottle,bottle,0.05,1713_nse_dnn_0.05_bottle_10_n03983396_8908.JPEG
vgg,2,434,NaN,bottle,bottle,0.05,1714_nse_dnn_0.05_bottle_10_n03937543_1802.JPEG
vgg,2,435,NaN,boat,bottle,0.05,1715_nse_dnn_0.05_bottle_10_n04557648_3574.JPEG
vgg,2,436,NaN,bottle,bottle,0.05,1716_nse_dnn_0.05_bottle_10_n04591713_6851.JPEG
vgg,2,437,NaN,bottle,bottle,0.05,1717_nse_dnn_0.05_bottle_10_n04591713_3776.JPEG
vgg,2,438,NaN,bottle,bottle,0.05,1718_nse_dnn_0.05_bottle_10_n04579145_1054.JPEG
vgg,2,439,NaN,bottle,bottle,0.05,1719_nse_dnn_0.05_bottle_10_n03937543_4505.JPEG
vgg,2,440,NaN,bottle,bottle,0.05,1720_nse_dnn_0.05_bottle_10_n04560804_14781.JPEG
vgg,2,441,NaN,truck,truck,0.05,1721_nse_dnn_0.05_truck_10_n03417042_104.JPEG
vgg,2,442,NaN,boat,truck,0.05,1722_nse_dnn_0.05_truck_10_n03417042_2978.JPEG
vgg,2,443,NaN,truck,truck,0.05,1723_nse_dnn_0.05_truck_10_n03417042_10754.JPEG
vgg,2,444,NaN,truck,truck,0.05,1724_nse_dnn_0.05_truck_10_n03417042_3807.JPEG
vgg,2,445,NaN,truck,truck,0.05,1725_nse_dnn_0.05_truck_10_n04467665_2044.JPEG
vgg,2,446,NaN,truck,truck,0.05,1726_nse_dnn_0.05_truck_10_n03417042_7191.JPEG
vgg,2,447,NaN,truck,truck,0.05,1727_nse_dnn_0.05_truck_10_n03796401_13445.JPEG
vgg,2,448,NaN,truck,truck,0.05,1728_nse_dnn_0.05_truck_10_n03417042_924.JPEG
vgg,2,449,NaN,truck,truck,0.05,1729_nse_dnn_0.05_truck_10_n04467665_4037.JPEG
vgg,2,450,NaN,boat,truck,0.05,1730_nse_dnn_0.05_truck_10_n03796401_7371.JPEG
vgg,2,451,NaN,car,car,0.05,1731_nse_dnn_0.05_car_10_n02814533_73210.JPEG
vgg,2,452,NaN,car,car,0.05,1732_nse_dnn_0.05_car_10_n02814533_1823.JPEG
vgg,2,453,NaN,car,car,0.05,1733_nse_dnn_0.05_car_10_n04285008_609.JPEG
vgg,2,454,NaN,truck,car,0.05,1734_nse_dnn_0.05_car_10_n04285008_7428.JPEG
vgg,2,455,NaN,car,car,0.05,1735_nse_dnn_0.05_car_10_n03100240_16861.JPEG
vgg,2,456,NaN,car,car,0.05,1736_nse_dnn_0.05_car_10_n02814533_4166.JPEG
vgg,2,457,NaN,car,car,0.05,1737_nse_dnn_0.05_car_10_n02814533_46196.JPEG
vgg,2,458,NaN,car,car,0.05,1738_nse_dnn_0.05_car_10_n04285008_11910.JPEG
vgg,2,459,NaN,car,car,0.05,1739_nse_dnn_0.05_car_10_n03100240_21334.JPEG
vgg,2,460,NaN,car,car,0.05,1740_nse_dnn_0.05_car_10_n03100240_3969.JPEG
vgg,2,461,NaN,bird,bird,0.05,1741_nse_dnn_0.05_bird_10_n01843065_3094.JPEG
vgg,2,462,NaN,bird,bird,0.05,1742_nse_dnn_0.05_bird_10_n01820546_7061.JPEG
vgg,2,463,NaN,dog,bird,0.05,1743_nse_dnn_0.05_bird_10_n01820546_2332.JPEG
vgg,2,464,NaN,dog,bird,0.05,1744_nse_dnn_0.05_bird_10_n01560419_7876.JPEG
vgg,2,465,NaN,bird,bird,0.05,1745_nse_dnn_0.05_bird_10_n01582220_9973.JPEG
vgg,2,466,NaN,bird,bird,0.05,1746_nse_dnn_0.05_bird_10_n01560419_10015.JPEG
vgg,2,467,NaN,bird,bird,0.05,1747_nse_dnn_0.05_bird_10_n01796340_6675.JPEG
vgg,2,468,NaN,bird,bird,0.05,1748_nse_dnn_0.05_bird_10_n02013706_14208.JPEG
vgg,2,469,NaN,bird,bird,0.05,1749_nse_dnn_0.05_bird_10_n02051845_14484.JPEG
vgg,2,470,NaN,bird,bird,0.05,1750_nse_dnn_0.05_bird_10_n01843065_4451.JPEG
vgg,2,471,NaN,dog,dog,0.05,1751_nse_dnn_0.05_dog_10_n02101388_6190.JPEG
vgg,2,472,NaN,dog,dog,0.05,1752_nse_dnn_0.05_dog_10_n02110185_6948.JPEG
vgg,2,473,NaN,dog,dog,0.05,1753_nse_dnn_0.05_dog_10_n02107312_2784.JPEG
vgg,2,474,NaN,dog,dog,0.05,1754_nse_dnn_0.05_dog_10_n02101556_5373.JPEG
vgg,2,475,NaN,dog,dog,0.05,1755_nse_dnn_0.05_dog_10_n02106030_6831.JPEG
vgg,2,476,NaN,dog,dog,0.05,1756_nse_dnn_0.05_dog_10_n02100735_6274.JPEG
vgg,2,477,NaN,dog,dog,0.05,1757_nse_dnn_0.05_dog_10_n02091032_10715.JPEG
vgg,2,478,NaN,dog,dog,0.05,1758_nse_dnn_0.05_dog_10_n02090622_3563.JPEG
vgg,2,479,NaN,dog,dog,0.05,1759_nse_dnn_0.05_dog_10_n02101006_10715.JPEG
vgg,2,480,NaN,dog,dog,0.05,1760_nse_dnn_0.05_dog_10_n02093647_1728.JPEG
vgg,2,481,NaN,clock,knife,0.10,1761_nse_dnn_0.10_knife_10_n03041632_5911.JPEG
vgg,2,482,NaN,dog,knife,0.10,1762_nse_dnn_0.10_knife_10_n03041632_20433.JPEG
vgg,2,483,NaN,dog,knife,0.10,1763_nse_dnn_0.10_knife_10_n03041632_20504.JPEG
vgg,2,484,NaN,dog,knife,0.10,1764_nse_dnn_0.10_knife_10_n03041632_105080.JPEG
vgg,2,485,NaN,bear,knife,0.10,1765_nse_dnn_0.10_knife_10_n03041632_25512.JPEG
vgg,2,486,NaN,dog,knife,0.10,1766_nse_dnn_0.10_knife_10_n03041632_15754.JPEG
vgg,2,487,NaN,dog,knife,0.10,1767_nse_dnn_0.10_knife_10_n03041632_13108.JPEG
vgg,2,488,NaN,cat,knife,0.10,1768_nse_dnn_0.10_knife_10_n03041632_50996.JPEG
vgg,2,489,NaN,keyboard,knife,0.10,1769_nse_dnn_0.10_knife_10_n03041632_27960.JPEG
vgg,2,490,NaN,dog,knife,0.10,1770_nse_dnn_0.10_knife_10_n03041632_32054.JPEG
vgg,2,491,NaN,keyboard,keyboard,0.10,1771_nse_dnn_0.10_keyboard_10_n04505470_4447.JPEG
vgg,2,492,NaN,cat,keyboard,0.10,1772_nse_dnn_0.10_keyboard_10_n04505470_4710.JPEG
vgg,2,493,NaN,bottle,keyboard,0.10,1773_nse_dnn_0.10_keyboard_10_n03085013_2190.JPEG
vgg,2,494,NaN,clock,keyboard,0.10,1774_nse_dnn_0.10_keyboard_10_n04505470_4527.JPEG
vgg,2,495,NaN,keyboard,keyboard,0.10,1775_nse_dnn_0.10_keyboard_10_n03085013_20691.JPEG
vgg,2,496,NaN,dog,keyboard,0.10,1776_nse_dnn_0.10_keyboard_10_n03085013_24124.JPEG
vgg,2,497,NaN,keyboard,keyboard,0.10,1777_nse_dnn_0.10_keyboard_10_n03085013_28083.JPEG
vgg,2,498,NaN,keyboard,keyboard,0.10,1778_nse_dnn_0.10_keyboard_10_n04505470_8937.JPEG
vgg,2,499,NaN,dog,keyboard,0.10,1779_nse_dnn_0.10_keyboard_10_n04505470_4289.JPEG
vgg,2,500,NaN,keyboard,keyboard,0.10,1780_nse_dnn_0.10_keyboard_10_n04505470_158.JPEG
vgg,2,501,NaN,cat,elephant,0.10,1781_nse_dnn_0.10_elephant_10_n02504458_5277.JPEG
vgg,2,502,NaN,elephant,elephant,0.10,1782_nse_dnn_0.10_elephant_10_n02504013_9342.JPEG
vgg,2,503,NaN,bird,elephant,0.10,1783_nse_dnn_0.10_elephant_10_n02504013_5829.JPEG
vgg,2,504,NaN,clock,elephant,0.10,1784_nse_dnn_0.10_elephant_10_n02504013_7070.JPEG
vgg,2,505,NaN,boat,elephant,0.10,1785_nse_dnn_0.10_elephant_10_n02504013_6130.JPEG
vgg,2,506,NaN,elephant,elephant,0.10,1786_nse_dnn_0.10_elephant_10_n02504013_9153.JPEG
vgg,2,507,NaN,dog,elephant,0.10,1787_nse_dnn_0.10_elephant_10_n02504013_6033.JPEG
vgg,2,508,NaN,dog,elephant,0.10,1788_nse_dnn_0.10_elephant_10_n02504458_2957.JPEG
vgg,2,509,NaN,bicycle,elephant,0.10,1789_nse_dnn_0.10_elephant_10_n02504458_13409.JPEG
vgg,2,510,NaN,dog,elephant,0.10,1790_nse_dnn_0.10_elephant_10_n02504458_3324.JPEG
vgg,2,511,NaN,clock,bicycle,0.10,1791_nse_dnn_0.10_bicycle_10_n03792782_2182.JPEG
vgg,2,512,NaN,truck,bicycle,0.10,1792_nse_dnn_0.10_bicycle_10_n02835271_3619.JPEG
vgg,2,513,NaN,bicycle,bicycle,0.10,1793_nse_dnn_0.10_bicycle_10_n02835271_1573.JPEG
vgg,2,514,NaN,clock,bicycle,0.10,1794_nse_dnn_0.10_bicycle_10_n02835271_794.JPEG
vgg,2,515,NaN,boat,bicycle,0.10,1795_nse_dnn_0.10_bicycle_10_n03792782_17502.JPEG
vgg,2,516,NaN,bicycle,bicycle,0.10,1796_nse_dnn_0.10_bicycle_10_n03792782_47694.JPEG
vgg,2,517,NaN,bicycle,bicycle,0.10,1797_nse_dnn_0.10_bicycle_10_n03792782_19083.JPEG
vgg,2,518,NaN,clock,bicycle,0.10,1798_nse_dnn_0.10_bicycle_10_n02835271_7096.JPEG
vgg,2,519,NaN,truck,bicycle,0.10,1799_nse_dnn_0.10_bicycle_10_n02835271_4374.JPEG
vgg,2,520,NaN,bicycle,bicycle,0.10,1800_nse_dnn_0.10_bicycle_10_n03792782_5980.JPEG
vgg,2,521,NaN,airplane,airplane,0.10,1801_nse_dnn_0.10_airplane_10_n02690373_1512.JPEG
vgg,2,522,NaN,boat,airplane,0.10,1802_nse_dnn_0.10_airplane_10_n02690373_7487.JPEG
vgg,2,523,NaN,airplane,airplane,0.10,1803_nse_dnn_0.10_airplane_10_n02690373_3059.JPEG
vgg,2,524,NaN,airplane,airplane,0.10,1804_nse_dnn_0.10_airplane_10_n02690373_2389.JPEG
vgg,2,525,NaN,dog,airplane,0.10,1805_nse_dnn_0.10_airplane_10_n02690373_8858.JPEG
vgg,2,526,NaN,airplane,airplane,0.10,1806_nse_dnn_0.10_airplane_10_n02690373_4201.JPEG
vgg,2,527,NaN,airplane,airplane,0.10,1807_nse_dnn_0.10_airplane_10_n02690373_6978.JPEG
vgg,2,528,NaN,boat,airplane,0.10,1808_nse_dnn_0.10_airplane_10_n02690373_6999.JPEG
vgg,2,529,NaN,airplane,airplane,0.10,1809_nse_dnn_0.10_airplane_10_n02690373_4763.JPEG
vgg,2,530,NaN,truck,airplane,0.10,1810_nse_dnn_0.10_airplane_10_n02690373_5465.JPEG
vgg,2,531,NaN,keyboard,clock,0.10,1811_nse_dnn_0.10_clock_10_n02708093_8229.JPEG
vgg,2,532,NaN,knife,clock,0.10,1812_nse_dnn_0.10_clock_10_n04548280_8277.JPEG
vgg,2,533,NaN,clock,clock,0.10,1813_nse_dnn_0.10_clock_10_n04548280_6290.JPEG
vgg,2,534,NaN,dog,clock,0.10,1814_nse_dnn_0.10_clock_10_n04548280_17536.JPEG
vgg,2,535,NaN,clock,clock,0.10,1815_nse_dnn_0.10_clock_10_n03196217_6706.JPEG
vgg,2,536,NaN,clock,clock,0.10,1816_nse_dnn_0.10_clock_10_n02708093_3591.JPEG
vgg,2,537,NaN,clock,clock,0.10,1817_nse_dnn_0.10_clock_10_n02708093_2580.JPEG
vgg,2,538,NaN,clock,clock,0.10,1818_nse_dnn_0.10_clock_10_n03196217_4068.JPEG
vgg,2,539,NaN,bottle,clock,0.10,1819_nse_dnn_0.10_clock_10_n04548280_6605.JPEG
vgg,2,540,NaN,clock,clock,0.10,1820_nse_dnn_0.10_clock_10_n03196217_981.JPEG
vgg,2,541,NaN,truck,oven,0.10,1821_nse_dnn_0.10_oven_10_n04111531_2960.JPEG
vgg,2,542,NaN,clock,oven,0.10,1822_nse_dnn_0.10_oven_10_n04111531_6094.JPEG
vgg,2,543,NaN,dog,oven,0.10,1823_nse_dnn_0.10_oven_10_n04111531_15947.JPEG
vgg,2,544,NaN,dog,oven,0.10,1824_nse_dnn_0.10_oven_10_n04111531_6479.JPEG
vgg,2,545,NaN,clock,oven,0.10,1825_nse_dnn_0.10_oven_10_n04111531_18520.JPEG
vgg,2,546,NaN,oven,oven,0.10,1826_nse_dnn_0.10_oven_10_n04111531_8398.JPEG
vgg,2,547,NaN,clock,oven,0.10,1827_nse_dnn_0.10_oven_10_n04111531_4984.JPEG
vgg,2,548,NaN,cat,oven,0.10,1828_nse_dnn_0.10_oven_10_n04111531_10974.JPEG
vgg,2,549,NaN,truck,oven,0.10,1829_nse_dnn_0.10_oven_10_n04111531_5792.JPEG
vgg,2,550,NaN,clock,oven,0.10,1830_nse_dnn_0.10_oven_10_n04111531_5216.JPEG
vgg,2,551,NaN,boat,chair,0.10,1831_nse_dnn_0.10_chair_10_n04429376_10546.JPEG
vgg,2,552,NaN,cat,chair,0.10,1832_nse_dnn_0.10_chair_10_n04429376_18334.JPEG
vgg,2,553,NaN,cat,chair,0.10,1833_nse_dnn_0.10_chair_10_n02791124_2972.JPEG
vgg,2,554,NaN,chair,chair,0.10,1834_nse_dnn_0.10_chair_10_n03376595_13544.JPEG
vgg,2,555,NaN,bottle,chair,0.10,1835_nse_dnn_0.10_chair_10_n03376595_19839.JPEG
vgg,2,556,NaN,clock,chair,0.10,1836_nse_dnn_0.10_chair_10_n04429376_6915.JPEG
vgg,2,557,NaN,clock,chair,0.10,1837_nse_dnn_0.10_chair_10_n03376595_9482.JPEG
vgg,2,558,NaN,clock,chair,0.10,1838_nse_dnn_0.10_chair_10_n04099969_11341.JPEG
vgg,2,559,NaN,chair,chair,0.10,1839_nse_dnn_0.10_chair_10_n02791124_11433.JPEG
vgg,2,560,NaN,clock,chair,0.10,1840_nse_dnn_0.10_chair_10_n02791124_2935.JPEG
vgg,2,561,NaN,dog,bear,0.10,1841_nse_dnn_0.10_bear_10_n02133161_1133.JPEG
vgg,2,562,NaN,dog,bear,0.10,1842_nse_dnn_0.10_bear_10_n02133161_11817.JPEG
vgg,2,563,NaN,dog,bear,0.10,1843_nse_dnn_0.10_bear_10_n02133161_10337.JPEG
vgg,2,564,NaN,dog,bear,0.10,1844_nse_dnn_0.10_bear_10_n02134418_28023.JPEG
vgg,2,565,NaN,dog,bear,0.10,1845_nse_dnn_0.10_bear_10_n02134418_2381.JPEG
vgg,2,566,NaN,dog,bear,0.10,1846_nse_dnn_0.10_bear_10_n02134084_3697.JPEG
vgg,2,567,NaN,bear,bear,0.10,1847_nse_dnn_0.10_bear_10_n02134418_4463.JPEG
vgg,2,568,NaN,dog,bear,0.10,1848_nse_dnn_0.10_bear_10_n02133161_3979.JPEG
vgg,2,569,NaN,bear,bear,0.10,1849_nse_dnn_0.10_bear_10_n02132136_19696.JPEG
vgg,2,570,NaN,dog,bear,0.10,1850_nse_dnn_0.10_bear_10_n02134084_572.JPEG
vgg,2,571,NaN,boat,boat,0.10,1851_nse_dnn_0.10_boat_10_n04273569_24211.JPEG
vgg,2,572,NaN,boat,boat,0.10,1852_nse_dnn_0.10_boat_10_n03662601_2816.JPEG
vgg,2,573,NaN,boat,boat,0.10,1853_nse_dnn_0.10_boat_10_n04612504_9952.JPEG
vgg,2,574,NaN,boat,boat,0.10,1854_nse_dnn_0.10_boat_10_n02951358_33807.JPEG
vgg,2,575,NaN,bird,boat,0.10,1855_nse_dnn_0.10_boat_10_n04273569_17179.JPEG
vgg,2,576,NaN,boat,boat,0.10,1856_nse_dnn_0.10_boat_10_n03344393_3298.JPEG
vgg,2,577,NaN,boat,boat,0.10,1857_nse_dnn_0.10_boat_10_n03344393_8122.JPEG
vgg,2,578,NaN,bicycle,boat,0.10,1858_nse_dnn_0.10_boat_10_n03344393_3661.JPEG
vgg,2,579,NaN,dog,boat,0.10,1859_nse_dnn_0.10_boat_10_n04612504_254.JPEG
vgg,2,580,NaN,boat,boat,0.10,1860_nse_dnn_0.10_boat_10_n04273569_30568.JPEG
vgg,2,581,NaN,dog,cat,0.10,1861_nse_dnn_0.10_cat_10_n02123045_5009.JPEG
vgg,2,582,NaN,dog,cat,0.10,1862_nse_dnn_0.10_cat_10_n02123045_1055.JPEG
vgg,2,583,NaN,cat,cat,0.10,1863_nse_dnn_0.10_cat_10_n02125311_7492.JPEG
vgg,2,584,NaN,clock,cat,0.10,1864_nse_dnn_0.10_cat_10_n02123597_5836.JPEG
vgg,2,585,NaN,dog,cat,0.10,1865_nse_dnn_0.10_cat_10_n02123597_2038.JPEG
vgg,2,586,NaN,cat,cat,0.10,1866_nse_dnn_0.10_cat_10_n02123597_7615.JPEG
vgg,2,587,NaN,dog,cat,0.10,1867_nse_dnn_0.10_cat_10_n02123394_900.JPEG
vgg,2,588,NaN,cat,cat,0.10,1868_nse_dnn_0.10_cat_10_n02124075_7693.JPEG
vgg,2,589,NaN,cat,cat,0.10,1869_nse_dnn_0.10_cat_10_n02123597_7006.JPEG
vgg,2,590,NaN,dog,cat,0.10,1870_nse_dnn_0.10_cat_10_n02123045_3729.JPEG
vgg,2,591,NaN,truck,bottle,0.10,1871_nse_dnn_0.10_bottle_10_n04591713_6291.JPEG
vgg,2,592,NaN,bottle,bottle,0.10,1872_nse_dnn_0.10_bottle_10_n04557648_9713.JPEG
vgg,2,593,NaN,chair,bottle,0.10,1873_nse_dnn_0.10_bottle_10_n02823428_5976.JPEG
vgg,2,594,NaN,bottle,bottle,0.10,1874_nse_dnn_0.10_bottle_10_n04557648_591.JPEG
vgg,2,595,NaN,dog,bottle,0.10,1875_nse_dnn_0.10_bottle_10_n04579145_505.JPEG
vgg,2,596,NaN,dog,bottle,0.10,1876_nse_dnn_0.10_bottle_10_n03983396_2034.JPEG
vgg,2,597,NaN,cat,bottle,0.10,1877_nse_dnn_0.10_bottle_10_n04557648_4932.JPEG
vgg,2,598,NaN,dog,bottle,0.10,1878_nse_dnn_0.10_bottle_10_n04560804_15752.JPEG
vgg,2,599,NaN,bottle,bottle,0.10,1879_nse_dnn_0.10_bottle_10_n04591713_6473.JPEG
vgg,2,600,NaN,dog,bottle,0.10,1880_nse_dnn_0.10_bottle_10_n03937543_3147.JPEG
vgg,2,601,NaN,chair,truck,0.10,1881_nse_dnn_0.10_truck_10_n03796401_9455.JPEG
vgg,2,602,NaN,truck,truck,0.10,1882_nse_dnn_0.10_truck_10_n04467665_50912.JPEG
vgg,2,603,NaN,truck,truck,0.10,1883_nse_dnn_0.10_truck_10_n03417042_2103.JPEG
vgg,2,604,NaN,truck,truck,0.10,1884_nse_dnn_0.10_truck_10_n03417042_23038.JPEG
vgg,2,605,NaN,truck,truck,0.10,1885_nse_dnn_0.10_truck_10_n04467665_51519.JPEG
vgg,2,606,NaN,truck,truck,0.10,1886_nse_dnn_0.10_truck_10_n03417042_212.JPEG
vgg,2,607,NaN,truck,truck,0.10,1887_nse_dnn_0.10_truck_10_n03796401_7380.JPEG
vgg,2,608,NaN,clock,truck,0.10,1888_nse_dnn_0.10_truck_10_n03796401_22323.JPEG
vgg,2,609,NaN,dog,truck,0.10,1889_nse_dnn_0.10_truck_10_n04467665_47685.JPEG
vgg,2,610,NaN,truck,truck,0.10,1890_nse_dnn_0.10_truck_10_n03417042_3586.JPEG
vgg,2,611,NaN,truck,car,0.10,1891_nse_dnn_0.10_car_10_n04285008_8951.JPEG
vgg,2,612,NaN,truck,car,0.10,1892_nse_dnn_0.10_car_10_n04285008_402.JPEG
vgg,2,613,NaN,truck,car,0.10,1893_nse_dnn_0.10_car_10_n03100240_5798.JPEG
vgg,2,614,NaN,truck,car,0.10,1894_nse_dnn_0.10_car_10_n04285008_17151.JPEG
vgg,2,615,NaN,car,car,0.10,1895_nse_dnn_0.10_car_10_n02814533_38719.JPEG
vgg,2,616,NaN,truck,car,0.10,1896_nse_dnn_0.10_car_10_n03100240_2277.JPEG
vgg,2,617,NaN,truck,car,0.10,1897_nse_dnn_0.10_car_10_n04285008_5955.JPEG
vgg,2,618,NaN,car,car,0.10,1898_nse_dnn_0.10_car_10_n02814533_69316.JPEG
vgg,2,619,NaN,truck,car,0.10,1899_nse_dnn_0.10_car_10_n02814533_61871.JPEG
vgg,2,620,NaN,truck,car,0.10,1900_nse_dnn_0.10_car_10_n03100240_9598.JPEG
vgg,2,621,NaN,bird,bird,0.10,1901_nse_dnn_0.10_bird_10_n02028035_4879.JPEG
vgg,2,622,NaN,bird,bird,0.10,1902_nse_dnn_0.10_bird_10_n02011460_3905.JPEG
vgg,2,623,NaN,bird,bird,0.10,1903_nse_dnn_0.10_bird_10_n01797886_6856.JPEG
vgg,2,624,NaN,dog,bird,0.10,1904_nse_dnn_0.10_bird_10_n01824575_1401.JPEG
vgg,2,625,NaN,bird,bird,0.10,1905_nse_dnn_0.10_bird_10_n02009912_7406.JPEG
vgg,2,626,NaN,dog,bird,0.10,1906_nse_dnn_0.10_bird_10_n02002556_3129.JPEG
vgg,2,627,NaN,bird,bird,0.10,1907_nse_dnn_0.10_bird_10_n02018795_14544.JPEG
vgg,2,628,NaN,cat,bird,0.10,1908_nse_dnn_0.10_bird_10_n02056570_3192.JPEG
vgg,2,629,NaN,clock,bird,0.10,1909_nse_dnn_0.10_bird_10_n01855032_1136.JPEG
vgg,2,630,NaN,cat,bird,0.10,1910_nse_dnn_0.10_bird_10_n01582220_4708.JPEG
vgg,2,631,NaN,dog,dog,0.10,1911_nse_dnn_0.10_dog_10_n02109047_8114.JPEG
vgg,2,632,NaN,dog,dog,0.10,1912_nse_dnn_0.10_dog_10_n02106550_2824.JPEG
vgg,2,633,NaN,dog,dog,0.10,1913_nse_dnn_0.10_dog_10_n02100236_8661.JPEG
vgg,2,634,NaN,dog,dog,0.10,1914_nse_dnn_0.10_dog_10_n02099429_3215.JPEG
vgg,2,635,NaN,dog,dog,0.10,1915_nse_dnn_0.10_dog_10_n02086646_422.JPEG
vgg,2,636,NaN,dog,dog,0.10,1916_nse_dnn_0.10_dog_10_n02093859_46.JPEG
vgg,2,637,NaN,dog,dog,0.10,1917_nse_dnn_0.10_dog_10_n02102177_2616.JPEG
vgg,2,638,NaN,dog,dog,0.10,1918_nse_dnn_0.10_dog_10_n02088238_3151.JPEG
vgg,2,639,NaN,dog,dog,0.10,1919_nse_dnn_0.10_dog_10_n02106030_16666.JPEG
vgg,2,640,NaN,dog,dog,0.10,1920_nse_dnn_0.10_dog_10_n02113978_4719.JPEG
vgg,2,641,NaN,knife,knife,0.20,1921_nse_dnn_0.20_knife_10_n03041632_42526.JPEG
vgg,2,642,NaN,dog,knife,0.20,1922_nse_dnn_0.20_knife_10_n03041632_16172.JPEG
vgg,2,643,NaN,dog,knife,0.20,1923_nse_dnn_0.20_knife_10_n03041632_86338.JPEG
vgg,2,644,NaN,dog,knife,0.20,1924_nse_dnn_0.20_knife_10_n03041632_21560.JPEG
vgg,2,645,NaN,dog,knife,0.20,1925_nse_dnn_0.20_knife_10_n03041632_102887.JPEG
vgg,2,646,NaN,dog,knife,0.20,1926_nse_dnn_0.20_knife_10_n03041632_77022.JPEG
vgg,2,647,NaN,dog,knife,0.20,1927_nse_dnn_0.20_knife_10_n03041632_25772.JPEG
vgg,2,648,NaN,dog,knife,0.20,1928_nse_dnn_0.20_knife_10_n03041632_4708.JPEG
vgg,2,649,NaN,dog,knife,0.20,1929_nse_dnn_0.20_knife_10_n03041632_52371.JPEG
vgg,2,650,NaN,dog,knife,0.20,1930_nse_dnn_0.20_knife_10_n03041632_90407.JPEG
vgg,2,651,NaN,dog,keyboard,0.20,1931_nse_dnn_0.20_keyboard_10_n04505470_2358.JPEG
vgg,2,652,NaN,clock,keyboard,0.20,1932_nse_dnn_0.20_keyboard_10_n03085013_18779.JPEG
vgg,2,653,NaN,clock,keyboard,0.20,1933_nse_dnn_0.20_keyboard_10_n03085013_22821.JPEG
vgg,2,654,NaN,keyboard,keyboard,0.20,1934_nse_dnn_0.20_keyboard_10_n03085013_2139.JPEG
vgg,2,655,NaN,cat,keyboard,0.20,1935_nse_dnn_0.20_keyboard_10_n03085013_23552.JPEG
vgg,2,656,NaN,dog,keyboard,0.20,1936_nse_dnn_0.20_keyboard_10_n03085013_3795.JPEG
vgg,2,657,NaN,keyboard,keyboard,0.20,1937_nse_dnn_0.20_keyboard_10_n04505470_1416.JPEG
vgg,2,658,NaN,keyboard,keyboard,0.20,1938_nse_dnn_0.20_keyboard_10_n04505470_2569.JPEG
vgg,2,659,NaN,keyboard,keyboard,0.20,1939_nse_dnn_0.20_keyboard_10_n03085013_24467.JPEG
vgg,2,660,NaN,cat,keyboard,0.20,1940_nse_dnn_0.20_keyboard_10_n04505470_10775.JPEG
vgg,2,661,NaN,dog,elephant,0.20,1941_nse_dnn_0.20_elephant_10_n02504013_3084.JPEG
vgg,2,662,NaN,dog,elephant,0.20,1942_nse_dnn_0.20_elephant_10_n02504013_6181.JPEG
vgg,2,663,NaN,dog,elephant,0.20,1943_nse_dnn_0.20_elephant_10_n02504013_10463.JPEG
vgg,2,664,NaN,cat,elephant,0.20,1944_nse_dnn_0.20_elephant_10_n02504458_2585.JPEG
vgg,2,665,NaN,dog,elephant,0.20,1945_nse_dnn_0.20_elephant_10_n02504458_2419.JPEG
vgg,2,666,NaN,cat,elephant,0.20,1946_nse_dnn_0.20_elephant_10_n02504458_396.JPEG
vgg,2,667,NaN,cat,elephant,0.20,1947_nse_dnn_0.20_elephant_10_n02504013_4278.JPEG
vgg,2,668,NaN,dog,elephant,0.20,1948_nse_dnn_0.20_elephant_10_n02504013_2988.JPEG
vgg,2,669,NaN,dog,elephant,0.20,1949_nse_dnn_0.20_elephant_10_n02504458_5243.JPEG
vgg,2,670,NaN,dog,elephant,0.20,1950_nse_dnn_0.20_elephant_10_n02504013_3939.JPEG
vgg,2,671,NaN,clock,bicycle,0.20,1951_nse_dnn_0.20_bicycle_10_n02835271_6074.JPEG
vgg,2,672,NaN,clock,bicycle,0.20,1952_nse_dnn_0.20_bicycle_10_n03792782_3069.JPEG
vgg,2,673,NaN,dog,bicycle,0.20,1953_nse_dnn_0.20_bicycle_10_n03792782_176.JPEG
vgg,2,674,NaN,dog,bicycle,0.20,1954_nse_dnn_0.20_bicycle_10_n02835271_4191.JPEG
vgg,2,675,NaN,dog,bicycle,0.20,1955_nse_dnn_0.20_bicycle_10_n02835271_2030.JPEG
vgg,2,676,NaN,dog,bicycle,0.20,1956_nse_dnn_0.20_bicycle_10_n03792782_907.JPEG
vgg,2,677,NaN,dog,bicycle,0.20,1957_nse_dnn_0.20_bicycle_10_n03792782_1760.JPEG
vgg,2,678,NaN,dog,bicycle,0.20,1958_nse_dnn_0.20_bicycle_10_n03792782_5089.JPEG
vgg,2,679,NaN,clock,bicycle,0.20,1959_nse_dnn_0.20_bicycle_10_n03792782_8840.JPEG
vgg,2,680,NaN,cat,bicycle,0.20,1960_nse_dnn_0.20_bicycle_10_n03792782_61058.JPEG
vgg,2,681,NaN,clock,airplane,0.20,1961_nse_dnn_0.20_airplane_10_n02690373_7685.JPEG
vgg,2,682,NaN,bird,airplane,0.20,1962_nse_dnn_0.20_airplane_10_n02690373_9346.JPEG
vgg,2,683,NaN,bird,airplane,0.20,1963_nse_dnn_0.20_airplane_10_n02690373_2496.JPEG
vgg,2,684,NaN,dog,airplane,0.20,1964_nse_dnn_0.20_airplane_10_n02690373_790.JPEG
vgg,2,685,NaN,dog,airplane,0.20,1965_nse_dnn_0.20_airplane_10_n02690373_19673.JPEG
vgg,2,686,NaN,bird,airplane,0.20,1966_nse_dnn_0.20_airplane_10_n02690373_8783.JPEG
vgg,2,687,NaN,dog,airplane,0.20,1967_nse_dnn_0.20_airplane_10_n02690373_9849.JPEG
vgg,2,688,NaN,bird,airplane,0.20,1968_nse_dnn_0.20_airplane_10_n02690373_12813.JPEG
vgg,2,689,NaN,dog,airplane,0.20,1969_nse_dnn_0.20_airplane_10_n02690373_10131.JPEG
vgg,2,690,NaN,bird,airplane,0.20,1970_nse_dnn_0.20_airplane_10_n02690373_7055.JPEG
vgg,2,691,NaN,clock,clock,0.20,1971_nse_dnn_0.20_clock_10_n04548280_596.JPEG
vgg,2,692,NaN,clock,clock,0.20,1972_nse_dnn_0.20_clock_10_n03196217_4004.JPEG
vgg,2,693,NaN,bottle,clock,0.20,1973_nse_dnn_0.20_clock_10_n03196217_7026.JPEG
vgg,2,694,NaN,dog,clock,0.20,1974_nse_dnn_0.20_clock_10_n04548280_5268.JPEG
vgg,2,695,NaN,clock,clock,0.20,1975_nse_dnn_0.20_clock_10_n04548280_4397.JPEG
vgg,2,696,NaN,clock,clock,0.20,1976_nse_dnn_0.20_clock_10_n04548280_5459.JPEG
vgg,2,697,NaN,clock,clock,0.20,1977_nse_dnn_0.20_clock_10_n04548280_12615.JPEG
vgg,2,698,NaN,dog,clock,0.20,1978_nse_dnn_0.20_clock_10_n03196217_4434.JPEG
vgg,2,699,NaN,clock,clock,0.20,1979_nse_dnn_0.20_clock_10_n02708093_214.JPEG
vgg,2,700,NaN,clock,clock,0.20,1980_nse_dnn_0.20_clock_10_n04548280_8412.JPEG
vgg,2,701,NaN,clock,oven,0.20,1981_nse_dnn_0.20_oven_10_n04111531_19075.JPEG
vgg,2,702,NaN,dog,oven,0.20,1982_nse_dnn_0.20_oven_10_n04111531_22263.JPEG
vgg,2,703,NaN,cat,oven,0.20,1983_nse_dnn_0.20_oven_10_n04111531_5015.JPEG
vgg,2,704,NaN,dog,oven,0.20,1984_nse_dnn_0.20_oven_10_n04111531_1970.JPEG
vgg,2,705,NaN,dog,oven,0.20,1985_nse_dnn_0.20_oven_10_n04111531_10769.JPEG
vgg,2,706,NaN,dog,oven,0.20,1986_nse_dnn_0.20_oven_10_n04111531_627.JPEG
vgg,2,707,NaN,bottle,oven,0.20,1987_nse_dnn_0.20_oven_10_n04111531_283.JPEG
vgg,2,708,NaN,clock,oven,0.20,1988_nse_dnn_0.20_oven_10_n04111531_21309.JPEG
vgg,2,709,NaN,truck,oven,0.20,1989_nse_dnn_0.20_oven_10_n04111531_11287.JPEG
vgg,2,710,NaN,bottle,oven,0.20,1990_nse_dnn_0.20_oven_10_n04111531_9455.JPEG
vgg,2,711,NaN,bottle,chair,0.20,1991_nse_dnn_0.20_chair_10_n04099969_3430.JPEG
vgg,2,712,NaN,bird,chair,0.20,1992_nse_dnn_0.20_chair_10_n04099969_60.JPEG
vgg,2,713,NaN,clock,chair,0.20,1993_nse_dnn_0.20_chair_10_n03376595_1802.JPEG
vgg,2,714,NaN,clock,chair,0.20,1994_nse_dnn_0.20_chair_10_n03376595_4354.JPEG
vgg,2,715,NaN,bottle,chair,0.20,1995_nse_dnn_0.20_chair_10_n03376595_302.JPEG
vgg,2,716,NaN,clock,chair,0.20,1996_nse_dnn_0.20_chair_10_n04429376_7593.JPEG
vgg,2,717,NaN,chair,chair,0.20,1997_nse_dnn_0.20_chair_10_n04429376_22381.JPEG
vgg,2,718,NaN,clock,chair,0.20,1998_nse_dnn_0.20_chair_10_n04429376_37106.JPEG
vgg,2,719,NaN,cat,chair,0.20,1999_nse_dnn_0.20_chair_10_n02791124_1358.JPEG
vgg,2,720,NaN,clock,chair,0.20,2000_nse_dnn_0.20_chair_10_n03376595_385.JPEG
vgg,2,721,NaN,dog,bear,0.20,2001_nse_dnn_0.20_bear_10_n02132136_7206.JPEG
vgg,2,722,NaN,cat,bear,0.20,2002_nse_dnn_0.20_bear_10_n02132136_9735.JPEG
vgg,2,723,NaN,dog,bear,0.20,2003_nse_dnn_0.20_bear_10_n02133161_583.JPEG
vgg,2,724,NaN,dog,bear,0.20,2004_nse_dnn_0.20_bear_10_n02132136_10318.JPEG
vgg,2,725,NaN,dog,bear,0.20,2005_nse_dnn_0.20_bear_10_n02132136_7147.JPEG
vgg,2,726,NaN,dog,bear,0.20,2006_nse_dnn_0.20_bear_10_n02134418_3232.JPEG
vgg,2,727,NaN,dog,bear,0.20,2007_nse_dnn_0.20_bear_10_n02134418_1809.JPEG
vgg,2,728,NaN,dog,bear,0.20,2008_nse_dnn_0.20_bear_10_n02134418_92.JPEG
vgg,2,729,NaN,dog,bear,0.20,2009_nse_dnn_0.20_bear_10_n02134418_102.JPEG
vgg,2,730,NaN,dog,bear,0.20,2010_nse_dnn_0.20_bear_10_n02133161_3340.JPEG
vgg,2,731,NaN,clock,boat,0.20,2011_nse_dnn_0.20_boat_10_n03344393_4997.JPEG
vgg,2,732,NaN,bird,boat,0.20,2012_nse_dnn_0.20_boat_10_n03662601_17237.JPEG
vgg,2,733,NaN,bottle,boat,0.20,2013_nse_dnn_0.20_boat_10_n04612504_4979.JPEG
vgg,2,734,NaN,clock,boat,0.20,2014_nse_dnn_0.20_boat_10_n03344393_11006.JPEG
vgg,2,735,NaN,dog,boat,0.20,2015_nse_dnn_0.20_boat_10_n03344393_8672.JPEG
vgg,2,736,NaN,boat,boat,0.20,2016_nse_dnn_0.20_boat_10_n04273569_2667.JPEG
vgg,2,737,NaN,clock,boat,0.20,2017_nse_dnn_0.20_boat_10_n03344393_2924.JPEG
vgg,2,738,NaN,bird,boat,0.20,2018_nse_dnn_0.20_boat_10_n02951358_33286.JPEG
vgg,2,739,NaN,dog,boat,0.20,2019_nse_dnn_0.20_boat_10_n03344393_4900.JPEG
vgg,2,740,NaN,clock,boat,0.20,2020_nse_dnn_0.20_boat_10_n02951358_30382.JPEG
vgg,2,741,NaN,clock,cat,0.20,2021_nse_dnn_0.20_cat_10_n02123597_4302.JPEG
vgg,2,742,NaN,dog,cat,0.20,2022_nse_dnn_0.20_cat_10_n02123394_201.JPEG
vgg,2,743,NaN,dog,cat,0.20,2023_nse_dnn_0.20_cat_10_n02123597_22229.JPEG
vgg,2,744,NaN,dog,cat,0.20,2024_nse_dnn_0.20_cat_10_n02123045_734.JPEG
vgg,2,745,NaN,dog,cat,0.20,2025_nse_dnn_0.20_cat_10_n02123159_7803.JPEG
vgg,2,746,NaN,dog,cat,0.20,2026_nse_dnn_0.20_cat_10_n02123394_1831.JPEG
vgg,2,747,NaN,dog,cat,0.20,2027_nse_dnn_0.20_cat_10_n02123597_11293.JPEG
vgg,2,748,NaN,dog,cat,0.20,2028_nse_dnn_0.20_cat_10_n02125311_24439.JPEG
vgg,2,749,NaN,dog,cat,0.20,2029_nse_dnn_0.20_cat_10_n02123597_9200.JPEG
vgg,2,750,NaN,dog,cat,0.20,2030_nse_dnn_0.20_cat_10_n02123045_3477.JPEG
vgg,2,751,NaN,truck,bottle,0.20,2031_nse_dnn_0.20_bottle_10_n04591713_4991.JPEG
vgg,2,752,NaN,dog,bottle,0.20,2032_nse_dnn_0.20_bottle_10_n04591713_7090.JPEG
vgg,2,753,NaN,dog,bottle,0.20,2033_nse_dnn_0.20_bottle_10_n04560804_13142.JPEG
vgg,2,754,NaN,cat,bottle,0.20,2034_nse_dnn_0.20_bottle_10_n04560804_22673.JPEG
vgg,2,755,NaN,dog,bottle,0.20,2035_nse_dnn_0.20_bottle_10_n02823428_1186.JPEG
vgg,2,756,NaN,cat,bottle,0.20,2036_nse_dnn_0.20_bottle_10_n02823428_5819.JPEG
vgg,2,757,NaN,clock,bottle,0.20,2037_nse_dnn_0.20_bottle_10_n03937543_7992.JPEG
vgg,2,758,NaN,clock,bottle,0.20,2038_nse_dnn_0.20_bottle_10_n03937543_10869.JPEG
vgg,2,759,NaN,cat,bottle,0.20,2039_nse_dnn_0.20_bottle_10_n04560804_12978.JPEG
vgg,2,760,NaN,dog,bottle,0.20,2040_nse_dnn_0.20_bottle_10_n04560804_5886.JPEG
vgg,2,761,NaN,cat,truck,0.20,2041_nse_dnn_0.20_truck_10_n03417042_14645.JPEG
vgg,2,762,NaN,dog,truck,0.20,2042_nse_dnn_0.20_truck_10_n03796401_1618.JPEG
vgg,2,763,NaN,clock,truck,0.20,2043_nse_dnn_0.20_truck_10_n04467665_52418.JPEG
vgg,2,764,NaN,truck,truck,0.20,2044_nse_dnn_0.20_truck_10_n03417042_28707.JPEG
vgg,2,765,NaN,clock,truck,0.20,2045_nse_dnn_0.20_truck_10_n04467665_77214.JPEG
vgg,2,766,NaN,clock,truck,0.20,2046_nse_dnn_0.20_truck_10_n04467665_23731.JPEG
vgg,2,767,NaN,cat,truck,0.20,2047_nse_dnn_0.20_truck_10_n03417042_23802.JPEG
vgg,2,768,NaN,bird,truck,0.20,2048_nse_dnn_0.20_truck_10_n03417042_4292.JPEG
vgg,2,769,NaN,clock,truck,0.20,2049_nse_dnn_0.20_truck_10_n03417042_7869.JPEG
vgg,2,770,NaN,clock,truck,0.20,2050_nse_dnn_0.20_truck_10_n03417042_18603.JPEG
vgg,2,771,NaN,dog,car,0.20,2051_nse_dnn_0.20_car_10_n02814533_81275.JPEG
vgg,2,772,NaN,clock,car,0.20,2052_nse_dnn_0.20_car_10_n02814533_37110.JPEG
vgg,2,773,NaN,clock,car,0.20,2053_nse_dnn_0.20_car_10_n04285008_11186.JPEG
vgg,2,774,NaN,truck,car,0.20,2054_nse_dnn_0.20_car_10_n03100240_17966.JPEG
vgg,2,775,NaN,dog,car,0.20,2055_nse_dnn_0.20_car_10_n04285008_8052.JPEG
vgg,2,776,NaN,truck,car,0.20,2056_nse_dnn_0.20_car_10_n02814533_90486.JPEG
vgg,2,777,NaN,truck,car,0.20,2057_nse_dnn_0.20_car_10_n04285008_3056.JPEG
vgg,2,778,NaN,clock,car,0.20,2058_nse_dnn_0.20_car_10_n02814533_31860.JPEG
vgg,2,779,NaN,bird,car,0.20,2059_nse_dnn_0.20_car_10_n03100240_5985.JPEG
vgg,2,780,NaN,boat,car,0.20,2060_nse_dnn_0.20_car_10_n04285008_3559.JPEG
vgg,2,781,NaN,bird,bird,0.20,2061_nse_dnn_0.20_bird_10_n02013706_4281.JPEG
vgg,2,782,NaN,dog,bird,0.20,2062_nse_dnn_0.20_bird_10_n01828970_10231.JPEG
vgg,2,783,NaN,dog,bird,0.20,2063_nse_dnn_0.20_bird_10_n02013706_7397.JPEG
vgg,2,784,NaN,dog,bird,0.20,2064_nse_dnn_0.20_bird_10_n01855672_55807.JPEG
vgg,2,785,NaN,dog,bird,0.20,2065_nse_dnn_0.20_bird_10_n02011460_16344.JPEG
vgg,2,786,NaN,dog,bird,0.20,2066_nse_dnn_0.20_bird_10_n01514859_20833.JPEG
vgg,2,787,NaN,dog,bird,0.20,2067_nse_dnn_0.20_bird_10_n02018795_3842.JPEG
vgg,2,788,NaN,dog,bird,0.20,2068_nse_dnn_0.20_bird_10_n02002724_5289.JPEG
vgg,2,789,NaN,dog,bird,0.20,2069_nse_dnn_0.20_bird_10_n02056570_6797.JPEG
vgg,2,790,NaN,dog,bird,0.20,2070_nse_dnn_0.20_bird_10_n01534433_5658.JPEG
vgg,2,791,NaN,dog,dog,0.20,2071_nse_dnn_0.20_dog_10_n02097209_1.JPEG
vgg,2,792,NaN,dog,dog,0.20,2072_nse_dnn_0.20_dog_10_n02090721_483.JPEG
vgg,2,793,NaN,dog,dog,0.20,2073_nse_dnn_0.20_dog_10_n02093647_5494.JPEG
vgg,2,794,NaN,dog,dog,0.20,2074_nse_dnn_0.20_dog_10_n02091134_744.JPEG
vgg,2,795,NaN,dog,dog,0.20,2075_nse_dnn_0.20_dog_10_n02093859_3574.JPEG
vgg,2,796,NaN,dog,dog,0.20,2076_nse_dnn_0.20_dog_10_n02107312_5477.JPEG
vgg,2,797,NaN,dog,dog,0.20,2077_nse_dnn_0.20_dog_10_n02110806_5677.JPEG
vgg,2,798,NaN,dog,dog,0.20,2078_nse_dnn_0.20_dog_10_n02088632_5187.JPEG
vgg,2,799,NaN,dog,dog,0.20,2079_nse_dnn_0.20_dog_10_n02088238_3286.JPEG
vgg,2,800,NaN,dog,dog,0.20,2080_nse_dnn_0.20_dog_10_n02092002_919.JPEG
vgg,2,801,NaN,dog,knife,0.35,2081_nse_dnn_0.35_knife_10_n03041632_32197.JPEG
vgg,2,802,NaN,dog,knife,0.35,2082_nse_dnn_0.35_knife_10_n03041632_36277.JPEG
vgg,2,803,NaN,dog,knife,0.35,2083_nse_dnn_0.35_knife_10_n03041632_20194.JPEG
vgg,2,804,NaN,bottle,knife,0.35,2084_nse_dnn_0.35_knife_10_n03041632_44133.JPEG
vgg,2,805,NaN,dog,knife,0.35,2085_nse_dnn_0.35_knife_10_n03041632_11285.JPEG
vgg,2,806,NaN,dog,knife,0.35,2086_nse_dnn_0.35_knife_10_n03041632_84048.JPEG
vgg,2,807,NaN,dog,knife,0.35,2087_nse_dnn_0.35_knife_10_n03041632_32337.JPEG
vgg,2,808,NaN,bottle,knife,0.35,2088_nse_dnn_0.35_knife_10_n03041632_8051.JPEG
vgg,2,809,NaN,dog,knife,0.35,2089_nse_dnn_0.35_knife_10_n03041632_33584.JPEG
vgg,2,810,NaN,dog,knife,0.35,2090_nse_dnn_0.35_knife_10_n03041632_42156.JPEG
vgg,2,811,NaN,dog,keyboard,0.35,2091_nse_dnn_0.35_keyboard_10_n03085013_19401.JPEG
vgg,2,812,NaN,bottle,keyboard,0.35,2092_nse_dnn_0.35_keyboard_10_n03085013_2090.JPEG
vgg,2,813,NaN,dog,keyboard,0.35,2093_nse_dnn_0.35_keyboard_10_n04505470_1430.JPEG
vgg,2,814,NaN,bird,keyboard,0.35,2094_nse_dnn_0.35_keyboard_10_n04505470_142.JPEG
vgg,2,815,NaN,dog,keyboard,0.35,2095_nse_dnn_0.35_keyboard_10_n03085013_22438.JPEG
vgg,2,816,NaN,bird,keyboard,0.35,2096_nse_dnn_0.35_keyboard_10_n03085013_23284.JPEG
vgg,2,817,NaN,keyboard,keyboard,0.35,2097_nse_dnn_0.35_keyboard_10_n03085013_20424.JPEG
vgg,2,818,NaN,dog,keyboard,0.35,2098_nse_dnn_0.35_keyboard_10_n04505470_4620.JPEG
vgg,2,819,NaN,dog,keyboard,0.35,2099_nse_dnn_0.35_keyboard_10_n04505470_2740.JPEG
vgg,2,820,NaN,cat,keyboard,0.35,2100_nse_dnn_0.35_keyboard_10_n03085013_21210.JPEG
vgg,2,821,NaN,dog,elephant,0.35,2101_nse_dnn_0.35_elephant_10_n02504458_5008.JPEG
vgg,2,822,NaN,dog,elephant,0.35,2102_nse_dnn_0.35_elephant_10_n02504458_4468.JPEG
vgg,2,823,NaN,bird,elephant,0.35,2103_nse_dnn_0.35_elephant_10_n02504458_6314.JPEG
vgg,2,824,NaN,bird,elephant,0.35,2104_nse_dnn_0.35_elephant_10_n02504013_8007.JPEG
vgg,2,825,NaN,dog,elephant,0.35,2105_nse_dnn_0.35_elephant_10_n02504458_5474.JPEG
vgg,2,826,NaN,dog,elephant,0.35,2106_nse_dnn_0.35_elephant_10_n02504458_1735.JPEG
vgg,2,827,NaN,dog,elephant,0.35,2107_nse_dnn_0.35_elephant_10_n02504458_1837.JPEG
vgg,2,828,NaN,cat,elephant,0.35,2108_nse_dnn_0.35_elephant_10_n02504013_6590.JPEG
vgg,2,829,NaN,dog,elephant,0.35,2109_nse_dnn_0.35_elephant_10_n02504013_8534.JPEG
vgg,2,830,NaN,bottle,elephant,0.35,2110_nse_dnn_0.35_elephant_10_n02504458_2026.JPEG
vgg,2,831,NaN,dog,bicycle,0.35,2111_nse_dnn_0.35_bicycle_10_n02835271_24679.JPEG
vgg,2,832,NaN,dog,bicycle,0.35,2112_nse_dnn_0.35_bicycle_10_n02835271_10849.JPEG
vgg,2,833,NaN,dog,bicycle,0.35,2113_nse_dnn_0.35_bicycle_10_n03792782_50972.JPEG
vgg,2,834,NaN,dog,bicycle,0.35,2114_nse_dnn_0.35_bicycle_10_n03792782_10367.JPEG
vgg,2,835,NaN,cat,bicycle,0.35,2115_nse_dnn_0.35_bicycle_10_n02835271_7762.JPEG
vgg,2,836,NaN,dog,bicycle,0.35,2116_nse_dnn_0.35_bicycle_10_n02835271_43.JPEG
vgg,2,837,NaN,bottle,bicycle,0.35,2117_nse_dnn_0.35_bicycle_10_n03792782_24085.JPEG
vgg,2,838,NaN,bird,bicycle,0.35,2118_nse_dnn_0.35_bicycle_10_n02835271_2074.JPEG
vgg,2,839,NaN,bottle,bicycle,0.35,2119_nse_dnn_0.35_bicycle_10_n03792782_13735.JPEG
vgg,2,840,NaN,cat,bicycle,0.35,2120_nse_dnn_0.35_bicycle_10_n02835271_8417.JPEG
vgg,2,841,NaN,dog,airplane,0.35,2121_nse_dnn_0.35_airplane_10_n02690373_4921.JPEG
vgg,2,842,NaN,dog,airplane,0.35,2122_nse_dnn_0.35_airplane_10_n02690373_9533.JPEG
vgg,2,843,NaN,bird,airplane,0.35,2123_nse_dnn_0.35_airplane_10_n02690373_1474.JPEG
vgg,2,844,NaN,dog,airplane,0.35,2124_nse_dnn_0.35_airplane_10_n02690373_5160.JPEG
vgg,2,845,NaN,dog,airplane,0.35,2125_nse_dnn_0.35_airplane_10_n02690373_2440.JPEG
vgg,2,846,NaN,bird,airplane,0.35,2126_nse_dnn_0.35_airplane_10_n02690373_6231.JPEG
vgg,2,847,NaN,dog,airplane,0.35,2127_nse_dnn_0.35_airplane_10_n02690373_17262.JPEG
vgg,2,848,NaN,dog,airplane,0.35,2128_nse_dnn_0.35_airplane_10_n02690373_3473.JPEG
vgg,2,849,NaN,dog,airplane,0.35,2129_nse_dnn_0.35_airplane_10_n02690373_5980.JPEG
vgg,2,850,NaN,bird,airplane,0.35,2130_nse_dnn_0.35_airplane_10_n02690373_3212.JPEG
vgg,2,851,NaN,dog,clock,0.35,2131_nse_dnn_0.35_clock_10_n03196217_8020.JPEG
vgg,2,852,NaN,clock,clock,0.35,2132_nse_dnn_0.35_clock_10_n04548280_1132.JPEG
vgg,2,853,NaN,clock,clock,0.35,2133_nse_dnn_0.35_clock_10_n04548280_7309.JPEG
vgg,2,854,NaN,dog,clock,0.35,2134_nse_dnn_0.35_clock_10_n04548280_715.JPEG
vgg,2,855,NaN,dog,clock,0.35,2135_nse_dnn_0.35_clock_10_n04548280_4287.JPEG
vgg,2,856,NaN,dog,clock,0.35,2136_nse_dnn_0.35_clock_10_n03196217_1423.JPEG
vgg,2,857,NaN,keyboard,clock,0.35,2137_nse_dnn_0.35_clock_10_n02708093_6572.JPEG
vgg,2,858,NaN,dog,clock,0.35,2138_nse_dnn_0.35_clock_10_n04548280_1810.JPEG
vgg,2,859,NaN,clock,clock,0.35,2139_nse_dnn_0.35_clock_10_n03196217_5433.JPEG
vgg,2,860,NaN,bird,clock,0.35,2140_nse_dnn_0.35_clock_10_n04548280_3330.JPEG
vgg,2,861,NaN,clock,oven,0.35,2141_nse_dnn_0.35_oven_10_n04111531_8462.JPEG
vgg,2,862,NaN,cat,oven,0.35,2142_nse_dnn_0.35_oven_10_n04111531_4050.JPEG
vgg,2,863,NaN,dog,oven,0.35,2143_nse_dnn_0.35_oven_10_n04111531_4749.JPEG
vgg,2,864,NaN,clock,oven,0.35,2144_nse_dnn_0.35_oven_10_n04111531_23046.JPEG
vgg,2,865,NaN,cat,oven,0.35,2145_nse_dnn_0.35_oven_10_n04111531_13801.JPEG
vgg,2,866,NaN,dog,oven,0.35,2146_nse_dnn_0.35_oven_10_n04111531_15852.JPEG
vgg,2,867,NaN,dog,oven,0.35,2147_nse_dnn_0.35_oven_10_n04111531_13691.JPEG
vgg,2,868,NaN,dog,oven,0.35,2148_nse_dnn_0.35_oven_10_n04111531_10802.JPEG
vgg,2,869,NaN,dog,oven,0.35,2149_nse_dnn_0.35_oven_10_n04111531_82.JPEG
vgg,2,870,NaN,bottle,oven,0.35,2150_nse_dnn_0.35_oven_10_n04111531_18916.JPEG
vgg,2,871,NaN,dog,chair,0.35,2151_nse_dnn_0.35_chair_10_n04429376_17705.JPEG
vgg,2,872,NaN,dog,chair,0.35,2152_nse_dnn_0.35_chair_10_n03376595_2094.JPEG
vgg,2,873,NaN,bottle,chair,0.35,2153_nse_dnn_0.35_chair_10_n03376595_14563.JPEG
vgg,2,874,NaN,dog,chair,0.35,2154_nse_dnn_0.35_chair_10_n02791124_4873.JPEG
vgg,2,875,NaN,bottle,chair,0.35,2155_nse_dnn_0.35_chair_10_n03376595_12440.JPEG
vgg,2,876,NaN,bottle,chair,0.35,2156_nse_dnn_0.35_chair_10_n02791124_606.JPEG
vgg,2,877,NaN,bird,chair,0.35,2157_nse_dnn_0.35_chair_10_n04099969_3951.JPEG
vgg,2,878,NaN,cat,chair,0.35,2158_nse_dnn_0.35_chair_10_n04429376_27637.JPEG
vgg,2,879,NaN,dog,chair,0.35,2159_nse_dnn_0.35_chair_10_n04099969_13007.JPEG
vgg,2,880,NaN,dog,chair,0.35,2160_nse_dnn_0.35_chair_10_n04429376_9715.JPEG
vgg,2,881,NaN,dog,bear,0.35,2161_nse_dnn_0.35_bear_10_n02132136_1709.JPEG
vgg,2,882,NaN,dog,bear,0.35,2162_nse_dnn_0.35_bear_10_n02134418_4505.JPEG
vgg,2,883,NaN,bottle,bear,0.35,2163_nse_dnn_0.35_bear_10_n02132136_1646.JPEG
vgg,2,884,NaN,dog,bear,0.35,2164_nse_dnn_0.35_bear_10_n02134418_4693.JPEG
vgg,2,885,NaN,dog,bear,0.35,2165_nse_dnn_0.35_bear_10_n02132136_10907.JPEG
vgg,2,886,NaN,dog,bear,0.35,2166_nse_dnn_0.35_bear_10_n02132136_5317.JPEG
vgg,2,887,NaN,dog,bear,0.35,2167_nse_dnn_0.35_bear_10_n02134418_455.JPEG
vgg,2,888,NaN,dog,bear,0.35,2168_nse_dnn_0.35_bear_10_n02134084_5274.JPEG
vgg,2,889,NaN,bottle,bear,0.35,2169_nse_dnn_0.35_bear_10_n02133161_777.JPEG
vgg,2,890,NaN,dog,bear,0.35,2170_nse_dnn_0.35_bear_10_n02134084_41483.JPEG
vgg,2,891,NaN,dog,boat,0.35,2171_nse_dnn_0.35_boat_10_n04273569_12261.JPEG
vgg,2,892,NaN,cat,boat,0.35,2172_nse_dnn_0.35_boat_10_n02951358_12080.JPEG
vgg,2,893,NaN,dog,boat,0.35,2173_nse_dnn_0.35_boat_10_n03662601_133.JPEG
vgg,2,894,NaN,bottle,boat,0.35,2174_nse_dnn_0.35_boat_10_n03344393_7031.JPEG
vgg,2,895,NaN,bird,boat,0.35,2175_nse_dnn_0.35_boat_10_n04273569_22576.JPEG
vgg,2,896,NaN,dog,boat,0.35,2176_nse_dnn_0.35_boat_10_n02951358_10519.JPEG
vgg,2,897,NaN,bird,boat,0.35,2177_nse_dnn_0.35_boat_10_n03662601_2048.JPEG
vgg,2,898,NaN,clock,boat,0.35,2178_nse_dnn_0.35_boat_10_n03344393_2623.JPEG
vgg,2,899,NaN,dog,boat,0.35,2179_nse_dnn_0.35_boat_10_n04273569_5698.JPEG
vgg,2,900,NaN,bird,boat,0.35,2180_nse_dnn_0.35_boat_10_n03662601_862.JPEG
vgg,2,901,NaN,dog,cat,0.35,2181_nse_dnn_0.35_cat_10_n02125311_24579.JPEG
vgg,2,902,NaN,dog,cat,0.35,2182_nse_dnn_0.35_cat_10_n02125311_22060.JPEG
vgg,2,903,NaN,dog,cat,0.35,2183_nse_dnn_0.35_cat_10_n02123597_3919.JPEG
vgg,2,904,NaN,dog,cat,0.35,2184_nse_dnn_0.35_cat_10_n02123159_2429.JPEG
vgg,2,905,NaN,dog,cat,0.35,2185_nse_dnn_0.35_cat_10_n02124075_10903.JPEG
vgg,2,906,NaN,dog,cat,0.35,2186_nse_dnn_0.35_cat_10_n02123045_21678.JPEG
vgg,2,907,NaN,dog,cat,0.35,2187_nse_dnn_0.35_cat_10_n02123597_7827.JPEG
vgg,2,908,NaN,dog,cat,0.35,2188_nse_dnn_0.35_cat_10_n02125311_15530.JPEG
vgg,2,909,NaN,dog,cat,0.35,2189_nse_dnn_0.35_cat_10_n02123045_11834.JPEG
vgg,2,910,NaN,dog,cat,0.35,2190_nse_dnn_0.35_cat_10_n02125311_55486.JPEG
vgg,2,911,NaN,bottle,bottle,0.35,2191_nse_dnn_0.35_bottle_10_n03983396_7744.JPEG
vgg,2,912,NaN,dog,bottle,0.35,2192_nse_dnn_0.35_bottle_10_n04591713_5545.JPEG
vgg,2,913,NaN,cat,bottle,0.35,2193_nse_dnn_0.35_bottle_10_n02823428_7931.JPEG
vgg,2,914,NaN,keyboard,bottle,0.35,2194_nse_dnn_0.35_bottle_10_n02823428_10701.JPEG
vgg,2,915,NaN,dog,bottle,0.35,2195_nse_dnn_0.35_bottle_10_n03983396_20.JPEG
vgg,2,916,NaN,clock,bottle,0.35,2196_nse_dnn_0.35_bottle_10_n03937543_295.JPEG
vgg,2,917,NaN,dog,bottle,0.35,2197_nse_dnn_0.35_bottle_10_n04579145_4713.JPEG
vgg,2,918,NaN,dog,bottle,0.35,2198_nse_dnn_0.35_bottle_10_n03983396_4843.JPEG
vgg,2,919,NaN,bottle,bottle,0.35,2199_nse_dnn_0.35_bottle_10_n03983396_22979.JPEG
vgg,2,920,NaN,dog,bottle,0.35,2200_nse_dnn_0.35_bottle_10_n03983396_621.JPEG
vgg,2,921,NaN,bird,truck,0.35,2201_nse_dnn_0.35_truck_10_n03417042_20123.JPEG
vgg,2,922,NaN,cat,truck,0.35,2202_nse_dnn_0.35_truck_10_n03796401_3208.JPEG
vgg,2,923,NaN,dog,truck,0.35,2203_nse_dnn_0.35_truck_10_n03417042_12096.JPEG
vgg,2,924,NaN,clock,truck,0.35,2204_nse_dnn_0.35_truck_10_n03417042_12601.JPEG
vgg,2,925,NaN,bird,truck,0.35,2205_nse_dnn_0.35_truck_10_n03796401_1758.JPEG
vgg,2,926,NaN,bottle,truck,0.35,2206_nse_dnn_0.35_truck_10_n04467665_41729.JPEG
vgg,2,927,NaN,bird,truck,0.35,2207_nse_dnn_0.35_truck_10_n03417042_5024.JPEG
vgg,2,928,NaN,dog,truck,0.35,2208_nse_dnn_0.35_truck_10_n04467665_32438.JPEG
vgg,2,929,NaN,bottle,truck,0.35,2209_nse_dnn_0.35_truck_10_n04467665_10025.JPEG
vgg,2,930,NaN,bottle,truck,0.35,2210_nse_dnn_0.35_truck_10_n04467665_12845.JPEG
vgg,2,931,NaN,dog,car,0.35,2211_nse_dnn_0.35_car_10_n02814533_10069.JPEG
vgg,2,932,NaN,bird,car,0.35,2212_nse_dnn_0.35_car_10_n02814533_31821.JPEG
vgg,2,933,NaN,cat,car,0.35,2213_nse_dnn_0.35_car_10_n04285008_2234.JPEG
vgg,2,934,NaN,dog,car,0.35,2214_nse_dnn_0.35_car_10_n04285008_820.JPEG
vgg,2,935,NaN,bottle,car,0.35,2215_nse_dnn_0.35_car_10_n03100240_15686.JPEG
vgg,2,936,NaN,dog,car,0.35,2216_nse_dnn_0.35_car_10_n03100240_388.JPEG
vgg,2,937,NaN,cat,car,0.35,2217_nse_dnn_0.35_car_10_n03100240_3398.JPEG
vgg,2,938,NaN,bird,car,0.35,2218_nse_dnn_0.35_car_10_n04285008_10711.JPEG
vgg,2,939,NaN,dog,car,0.35,2219_nse_dnn_0.35_car_10_n02814533_3754.JPEG
vgg,2,940,NaN,cat,car,0.35,2220_nse_dnn_0.35_car_10_n03100240_13410.JPEG
vgg,2,941,NaN,dog,bird,0.35,2221_nse_dnn_0.35_bird_10_n01622779_539.JPEG
vgg,2,942,NaN,dog,bird,0.35,2222_nse_dnn_0.35_bird_10_n01819313_6402.JPEG
vgg,2,943,NaN,dog,bird,0.35,2223_nse_dnn_0.35_bird_10_n01795545_13990.JPEG
vgg,2,944,NaN,dog,bird,0.35,2224_nse_dnn_0.35_bird_10_n02011460_4812.JPEG
vgg,2,945,NaN,dog,bird,0.35,2225_nse_dnn_0.35_bird_10_n02013706_7606.JPEG
vgg,2,946,NaN,dog,bird,0.35,2226_nse_dnn_0.35_bird_10_n01514859_18099.JPEG
vgg,2,947,NaN,dog,bird,0.35,2227_nse_dnn_0.35_bird_10_n01582220_5587.JPEG
vgg,2,948,NaN,dog,bird,0.35,2228_nse_dnn_0.35_bird_10_n01855672_8354.JPEG
vgg,2,949,NaN,dog,bird,0.35,2229_nse_dnn_0.35_bird_10_n02007558_10912.JPEG
vgg,2,950,NaN,dog,bird,0.35,2230_nse_dnn_0.35_bird_10_n01537544_15824.JPEG
vgg,2,951,NaN,dog,dog,0.35,2231_nse_dnn_0.35_dog_10_n02102177_4024.JPEG
vgg,2,952,NaN,dog,dog,0.35,2232_nse_dnn_0.35_dog_10_n02106382_4931.JPEG
vgg,2,953,NaN,dog,dog,0.35,2233_nse_dnn_0.35_dog_10_n02108551_23624.JPEG
vgg,2,954,NaN,dog,dog,0.35,2234_nse_dnn_0.35_dog_10_n02093256_14890.JPEG
vgg,2,955,NaN,dog,dog,0.35,2235_nse_dnn_0.35_dog_10_n02113624_8513.JPEG
vgg,2,956,NaN,dog,dog,0.35,2236_nse_dnn_0.35_dog_10_n02100877_30976.JPEG
vgg,2,957,NaN,dog,dog,0.35,2237_nse_dnn_0.35_dog_10_n02095570_9330.JPEG
vgg,2,958,NaN,dog,dog,0.35,2238_nse_dnn_0.35_dog_10_n02086079_520.JPEG
vgg,2,959,NaN,dog,dog,0.35,2239_nse_dnn_0.35_dog_10_n02097209_6701.JPEG
vgg,2,960,NaN,dog,dog,0.35,2240_nse_dnn_0.35_dog_10_n02102480_7803.JPEG
vgg,2,961,NaN,dog,knife,0.60,2241_nse_dnn_0.60_knife_10_n03041632_11603.JPEG
vgg,2,962,NaN,bottle,knife,0.60,2242_nse_dnn_0.60_knife_10_n03041632_56217.JPEG
vgg,2,963,NaN,dog,knife,0.60,2243_nse_dnn_0.60_knife_10_n03041632_46091.JPEG
vgg,2,964,NaN,dog,knife,0.60,2244_nse_dnn_0.60_knife_10_n03041632_28710.JPEG
vgg,2,965,NaN,bottle,knife,0.60,2245_nse_dnn_0.60_knife_10_n03041632_32979.JPEG
vgg,2,966,NaN,bird,knife,0.60,2246_nse_dnn_0.60_knife_10_n03041632_94155.JPEG
vgg,2,967,NaN,dog,knife,0.60,2247_nse_dnn_0.60_knife_10_n03041632_45622.JPEG
vgg,2,968,NaN,bottle,knife,0.60,2248_nse_dnn_0.60_knife_10_n03041632_126.JPEG
vgg,2,969,NaN,dog,knife,0.60,2249_nse_dnn_0.60_knife_10_n03041632_36390.JPEG
vgg,2,970,NaN,bird,knife,0.60,2250_nse_dnn_0.60_knife_10_n03041632_30602.JPEG
vgg,2,971,NaN,bottle,keyboard,0.60,2251_nse_dnn_0.60_keyboard_10_n03085013_9653.JPEG
vgg,2,972,NaN,bottle,keyboard,0.60,2252_nse_dnn_0.60_keyboard_10_n03085013_20594.JPEG
vgg,2,973,NaN,dog,keyboard,0.60,2253_nse_dnn_0.60_keyboard_10_n03085013_18788.JPEG
vgg,2,974,NaN,dog,keyboard,0.60,2254_nse_dnn_0.60_keyboard_10_n03085013_5568.JPEG
vgg,2,975,NaN,dog,keyboard,0.60,2255_nse_dnn_0.60_keyboard_10_n04505470_4753.JPEG
vgg,2,976,NaN,dog,keyboard,0.60,2256_nse_dnn_0.60_keyboard_10_n04505470_3064.JPEG
vgg,2,977,NaN,bird,keyboard,0.60,2257_nse_dnn_0.60_keyboard_10_n03085013_16359.JPEG
vgg,2,978,NaN,dog,keyboard,0.60,2258_nse_dnn_0.60_keyboard_10_n03085013_23549.JPEG
vgg,2,979,NaN,dog,keyboard,0.60,2259_nse_dnn_0.60_keyboard_10_n04505470_704.JPEG
vgg,2,980,NaN,bottle,keyboard,0.60,2260_nse_dnn_0.60_keyboard_10_n03085013_21282.JPEG
vgg,2,981,NaN,dog,elephant,0.60,2261_nse_dnn_0.60_elephant_10_n02504013_2609.JPEG
vgg,2,982,NaN,bird,elephant,0.60,2262_nse_dnn_0.60_elephant_10_n02504013_4295.JPEG
vgg,2,983,NaN,bird,elephant,0.60,2263_nse_dnn_0.60_elephant_10_n02504458_7966.JPEG
vgg,2,984,NaN,dog,elephant,0.60,2264_nse_dnn_0.60_elephant_10_n02504458_1715.JPEG
vgg,2,985,NaN,bird,elephant,0.60,2265_nse_dnn_0.60_elephant_10_n02504458_3878.JPEG
vgg,2,986,NaN,bird,elephant,0.60,2266_nse_dnn_0.60_elephant_10_n02504458_5141.JPEG
vgg,2,987,NaN,dog,elephant,0.60,2267_nse_dnn_0.60_elephant_10_n02504013_22131.JPEG
vgg,2,988,NaN,bird,elephant,0.60,2268_nse_dnn_0.60_elephant_10_n02504013_5014.JPEG
vgg,2,989,NaN,dog,elephant,0.60,2269_nse_dnn_0.60_elephant_10_n02504458_1018.JPEG
vgg,2,990,NaN,bird,elephant,0.60,2270_nse_dnn_0.60_elephant_10_n02504013_7659.JPEG
vgg,2,991,NaN,bottle,bicycle,0.60,2271_nse_dnn_0.60_bicycle_10_n03792782_38641.JPEG
vgg,2,992,NaN,dog,bicycle,0.60,2272_nse_dnn_0.60_bicycle_10_n02835271_7570.JPEG
vgg,2,993,NaN,dog,bicycle,0.60,2273_nse_dnn_0.60_bicycle_10_n02835271_21216.JPEG
vgg,2,994,NaN,dog,bicycle,0.60,2274_nse_dnn_0.60_bicycle_10_n02835271_4440.JPEG
vgg,2,995,NaN,dog,bicycle,0.60,2275_nse_dnn_0.60_bicycle_10_n03792782_16290.JPEG
vgg,2,996,NaN,dog,bicycle,0.60,2276_nse_dnn_0.60_bicycle_10_n02835271_4667.JPEG
vgg,2,997,NaN,bottle,bicycle,0.60,2277_nse_dnn_0.60_bicycle_10_n03792782_34550.JPEG
vgg,2,998,NaN,dog,bicycle,0.60,2278_nse_dnn_0.60_bicycle_10_n03792782_5333.JPEG
vgg,2,999,NaN,dog,bicycle,0.60,2279_nse_dnn_0.60_bicycle_10_n03792782_18190.JPEG
vgg,2,1000,NaN,dog,bicycle,0.60,2280_nse_dnn_0.60_bicycle_10_n02835271_7284.JPEG
vgg,2,1001,NaN,dog,airplane,0.60,2281_nse_dnn_0.60_airplane_10_n02690373_7401.JPEG
vgg,2,1002,NaN,bottle,airplane,0.60,2282_nse_dnn_0.60_airplane_10_n02690373_8950.JPEG
vgg,2,1003,NaN,bird,airplane,0.60,2283_nse_dnn_0.60_airplane_10_n02690373_6614.JPEG
vgg,2,1004,NaN,dog,airplane,0.60,2284_nse_dnn_0.60_airplane_10_n02690373_4225.JPEG
vgg,2,1005,NaN,bird,airplane,0.60,2285_nse_dnn_0.60_airplane_10_n02690373_2521.JPEG
vgg,2,1006,NaN,bird,airplane,0.60,2286_nse_dnn_0.60_airplane_10_n02690373_7573.JPEG
vgg,2,1007,NaN,bird,airplane,0.60,2287_nse_dnn_0.60_airplane_10_n02690373_9445.JPEG
vgg,2,1008,NaN,bird,airplane,0.60,2288_nse_dnn_0.60_airplane_10_n02690373_10231.JPEG
vgg,2,1009,NaN,dog,airplane,0.60,2289_nse_dnn_0.60_airplane_10_n02690373_6755.JPEG
vgg,2,1010,NaN,dog,airplane,0.60,2290_nse_dnn_0.60_airplane_10_n02690373_9618.JPEG
vgg,2,1011,NaN,bottle,clock,0.60,2291_nse_dnn_0.60_clock_10_n03196217_1573.JPEG
vgg,2,1012,NaN,bird,clock,0.60,2292_nse_dnn_0.60_clock_10_n02708093_8386.JPEG
vgg,2,1013,NaN,dog,clock,0.60,2293_nse_dnn_0.60_clock_10_n03196217_1984.JPEG
vgg,2,1014,NaN,dog,clock,0.60,2294_nse_dnn_0.60_clock_10_n04548280_2957.JPEG
vgg,2,1015,NaN,dog,clock,0.60,2295_nse_dnn_0.60_clock_10_n02708093_6718.JPEG
vgg,2,1016,NaN,bird,clock,0.60,2296_nse_dnn_0.60_clock_10_n04548280_1535.JPEG
vgg,2,1017,NaN,dog,clock,0.60,2297_nse_dnn_0.60_clock_10_n04548280_5278.JPEG
vgg,2,1018,NaN,dog,clock,0.60,2298_nse_dnn_0.60_clock_10_n03196217_1590.JPEG
vgg,2,1019,NaN,bird,clock,0.60,2299_nse_dnn_0.60_clock_10_n02708093_3755.JPEG
vgg,2,1020,NaN,dog,clock,0.60,2300_nse_dnn_0.60_clock_10_n03196217_2639.JPEG
vgg,2,1021,NaN,bottle,oven,0.60,2301_nse_dnn_0.60_oven_10_n04111531_9411.JPEG
vgg,2,1022,NaN,dog,oven,0.60,2302_nse_dnn_0.60_oven_10_n04111531_6568.JPEG
vgg,2,1023,NaN,dog,oven,0.60,2303_nse_dnn_0.60_oven_10_n04111531_2296.JPEG
vgg,2,1024,NaN,bottle,oven,0.60,2304_nse_dnn_0.60_oven_10_n04111531_9962.JPEG
vgg,2,1025,NaN,dog,oven,0.60,2305_nse_dnn_0.60_oven_10_n04111531_13113.JPEG
vgg,2,1026,NaN,bottle,oven,0.60,2306_nse_dnn_0.60_oven_10_n04111531_10521.JPEG
vgg,2,1027,NaN,dog,oven,0.60,2307_nse_dnn_0.60_oven_10_n04111531_4392.JPEG
vgg,2,1028,NaN,dog,oven,0.60,2308_nse_dnn_0.60_oven_10_n04111531_6415.JPEG
vgg,2,1029,NaN,dog,oven,0.60,2309_nse_dnn_0.60_oven_10_n04111531_21176.JPEG
vgg,2,1030,NaN,dog,oven,0.60,2310_nse_dnn_0.60_oven_10_n04111531_10313.JPEG
vgg,2,1031,NaN,bottle,chair,0.60,2311_nse_dnn_0.60_chair_10_n03376595_5166.JPEG
vgg,2,1032,NaN,bird,chair,0.60,2312_nse_dnn_0.60_chair_10_n04429376_24699.JPEG
vgg,2,1033,NaN,cat,chair,0.60,2313_nse_dnn_0.60_chair_10_n04099969_2758.JPEG
vgg,2,1034,NaN,dog,chair,0.60,2314_nse_dnn_0.60_chair_10_n03376595_11319.JPEG
vgg,2,1035,NaN,dog,chair,0.60,2315_nse_dnn_0.60_chair_10_n03376595_2368.JPEG
vgg,2,1036,NaN,bottle,chair,0.60,2316_nse_dnn_0.60_chair_10_n02791124_3431.JPEG
vgg,2,1037,NaN,bottle,chair,0.60,2317_nse_dnn_0.60_chair_10_n02791124_4306.JPEG
vgg,2,1038,NaN,dog,chair,0.60,2318_nse_dnn_0.60_chair_10_n02791124_6548.JPEG
vgg,2,1039,NaN,dog,chair,0.60,2319_nse_dnn_0.60_chair_10_n04099969_7925.JPEG
vgg,2,1040,NaN,bottle,chair,0.60,2320_nse_dnn_0.60_chair_10_n02791124_8002.JPEG
vgg,2,1041,NaN,dog,bear,0.60,2321_nse_dnn_0.60_bear_10_n02134418_2170.JPEG
vgg,2,1042,NaN,dog,bear,0.60,2322_nse_dnn_0.60_bear_10_n02133161_958.JPEG
vgg,2,1043,NaN,dog,bear,0.60,2323_nse_dnn_0.60_bear_10_n02134418_1605.JPEG
vgg,2,1044,NaN,bottle,bear,0.60,2324_nse_dnn_0.60_bear_10_n02133161_3553.JPEG
vgg,2,1045,NaN,dog,bear,0.60,2325_nse_dnn_0.60_bear_10_n02132136_295.JPEG
vgg,2,1046,NaN,dog,bear,0.60,2326_nse_dnn_0.60_bear_10_n02134084_9562.JPEG
vgg,2,1047,NaN,bottle,bear,0.60,2327_nse_dnn_0.60_bear_10_n02133161_2744.JPEG
vgg,2,1048,NaN,bird,bear,0.60,2328_nse_dnn_0.60_bear_10_n02132136_1532.JPEG
vgg,2,1049,NaN,dog,bear,0.60,2329_nse_dnn_0.60_bear_10_n02133161_2814.JPEG
vgg,2,1050,NaN,bird,bear,0.60,2330_nse_dnn_0.60_bear_10_n02134084_4625.JPEG
vgg,2,1051,NaN,dog,boat,0.60,2331_nse_dnn_0.60_boat_10_n02951358_4461.JPEG
vgg,2,1052,NaN,dog,boat,0.60,2332_nse_dnn_0.60_boat_10_n03344393_9268.JPEG
vgg,2,1053,NaN,dog,boat,0.60,2333_nse_dnn_0.60_boat_10_n02951358_29382.JPEG
vgg,2,1054,NaN,dog,boat,0.60,2334_nse_dnn_0.60_boat_10_n03344393_6424.JPEG
vgg,2,1055,NaN,dog,boat,0.60,2335_nse_dnn_0.60_boat_10_n04612504_3678.JPEG
vgg,2,1056,NaN,bottle,boat,0.60,2336_nse_dnn_0.60_boat_10_n02951358_3834.JPEG
vgg,2,1057,NaN,dog,boat,0.60,2337_nse_dnn_0.60_boat_10_n03662601_16438.JPEG
vgg,2,1058,NaN,dog,boat,0.60,2338_nse_dnn_0.60_boat_10_n03662601_13847.JPEG
vgg,2,1059,NaN,bottle,boat,0.60,2339_nse_dnn_0.60_boat_10_n02951358_13022.JPEG
vgg,2,1060,NaN,dog,boat,0.60,2340_nse_dnn_0.60_boat_10_n02951358_12464.JPEG
vgg,2,1061,NaN,bird,cat,0.60,2341_nse_dnn_0.60_cat_10_n02125311_16544.JPEG
vgg,2,1062,NaN,dog,cat,0.60,2342_nse_dnn_0.60_cat_10_n02123045_8605.JPEG
vgg,2,1063,NaN,dog,cat,0.60,2343_nse_dnn_0.60_cat_10_n02124075_3289.JPEG
vgg,2,1064,NaN,dog,cat,0.60,2344_nse_dnn_0.60_cat_10_n02123597_11290.JPEG
vgg,2,1065,NaN,dog,cat,0.60,2345_nse_dnn_0.60_cat_10_n02124075_990.JPEG
vgg,2,1066,NaN,dog,cat,0.60,2346_nse_dnn_0.60_cat_10_n02123597_12078.JPEG
vgg,2,1067,NaN,bottle,cat,0.60,2347_nse_dnn_0.60_cat_10_n02123159_8161.JPEG
vgg,2,1068,NaN,bottle,cat,0.60,2348_nse_dnn_0.60_cat_10_n02123045_3941.JPEG
vgg,2,1069,NaN,dog,cat,0.60,2349_nse_dnn_0.60_cat_10_n02123394_6540.JPEG
vgg,2,1070,NaN,bird,cat,0.60,2350_nse_dnn_0.60_cat_10_n02124075_5726.JPEG
vgg,2,1071,NaN,dog,bottle,0.60,2351_nse_dnn_0.60_bottle_10_n03937543_3960.JPEG
vgg,2,1072,NaN,dog,bottle,0.60,2352_nse_dnn_0.60_bottle_10_n03983396_23016.JPEG
vgg,2,1073,NaN,dog,bottle,0.60,2353_nse_dnn_0.60_bottle_10_n04591713_6238.JPEG
vgg,2,1074,NaN,dog,bottle,0.60,2354_nse_dnn_0.60_bottle_10_n04579145_2050.JPEG
vgg,2,1075,NaN,dog,bottle,0.60,2355_nse_dnn_0.60_bottle_10_n04557648_8744.JPEG
vgg,2,1076,NaN,bottle,bottle,0.60,2356_nse_dnn_0.60_bottle_10_n02823428_4051.JPEG
vgg,2,1077,NaN,dog,bottle,0.60,2357_nse_dnn_0.60_bottle_10_n03983396_9674.JPEG
vgg,2,1078,NaN,bottle,bottle,0.60,2358_nse_dnn_0.60_bottle_10_n04557648_2005.JPEG
vgg,2,1079,NaN,dog,bottle,0.60,2359_nse_dnn_0.60_bottle_10_n03983396_1721.JPEG
vgg,2,1080,NaN,dog,bottle,0.60,2360_nse_dnn_0.60_bottle_10_n03983396_7784.JPEG
vgg,2,1081,NaN,dog,truck,0.60,2361_nse_dnn_0.60_truck_10_n04467665_8063.JPEG
vgg,2,1082,NaN,dog,truck,0.60,2362_nse_dnn_0.60_truck_10_n04467665_7110.JPEG
vgg,2,1083,NaN,bird,truck,0.60,2363_nse_dnn_0.60_truck_10_n03796401_5873.JPEG
vgg,2,1084,NaN,bottle,truck,0.60,2364_nse_dnn_0.60_truck_10_n03417042_18246.JPEG
vgg,2,1085,NaN,dog,truck,0.60,2365_nse_dnn_0.60_truck_10_n04467665_9160.JPEG
vgg,2,1086,NaN,dog,truck,0.60,2366_nse_dnn_0.60_truck_10_n03417042_9829.JPEG
vgg,2,1087,NaN,dog,truck,0.60,2367_nse_dnn_0.60_truck_10_n03417042_9062.JPEG
vgg,2,1088,NaN,bird,truck,0.60,2368_nse_dnn_0.60_truck_10_n03417042_768.JPEG
vgg,2,1089,NaN,dog,truck,0.60,2369_nse_dnn_0.60_truck_10_n04467665_64492.JPEG
vgg,2,1090,NaN,dog,truck,0.60,2370_nse_dnn_0.60_truck_10_n04467665_1752.JPEG
vgg,2,1091,NaN,dog,car,0.60,2371_nse_dnn_0.60_car_10_n02814533_49499.JPEG
vgg,2,1092,NaN,dog,car,0.60,2372_nse_dnn_0.60_car_10_n03100240_15358.JPEG
vgg,2,1093,NaN,bird,car,0.60,2373_nse_dnn_0.60_car_10_n03100240_13345.JPEG
vgg,2,1094,NaN,dog,car,0.60,2374_nse_dnn_0.60_car_10_n02814533_41200.JPEG
vgg,2,1095,NaN,dog,car,0.60,2375_nse_dnn_0.60_car_10_n02814533_7769.JPEG
vgg,2,1096,NaN,dog,car,0.60,2376_nse_dnn_0.60_car_10_n02814533_49083.JPEG
vgg,2,1097,NaN,dog,car,0.60,2377_nse_dnn_0.60_car_10_n03100240_7454.JPEG
vgg,2,1098,NaN,bird,car,0.60,2378_nse_dnn_0.60_car_10_n04285008_2481.JPEG
vgg,2,1099,NaN,bird,car,0.60,2379_nse_dnn_0.60_car_10_n04285008_17059.JPEG
vgg,2,1100,NaN,dog,car,0.60,2380_nse_dnn_0.60_car_10_n03100240_5488.JPEG
vgg,2,1101,NaN,dog,bird,0.60,2381_nse_dnn_0.60_bird_10_n01833805_6962.JPEG
vgg,2,1102,NaN,dog,bird,0.60,2382_nse_dnn_0.60_bird_10_n02056570_8485.JPEG
vgg,2,1103,NaN,dog,bird,0.60,2383_nse_dnn_0.60_bird_10_n02013706_6304.JPEG
vgg,2,1104,NaN,dog,bird,0.60,2384_nse_dnn_0.60_bird_10_n01601694_24546.JPEG
vgg,2,1105,NaN,dog,bird,0.60,2385_nse_dnn_0.60_bird_10_n01530575_10594.JPEG
vgg,2,1106,NaN,dog,bird,0.60,2386_nse_dnn_0.60_bird_10_n02037110_24086.JPEG
vgg,2,1107,NaN,bottle,bird,0.60,2387_nse_dnn_0.60_bird_10_n01532829_25406.JPEG
vgg,2,1108,NaN,dog,bird,0.60,2388_nse_dnn_0.60_bird_10_n01828970_8142.JPEG
vgg,2,1109,NaN,bottle,bird,0.60,2389_nse_dnn_0.60_bird_10_n02027492_343.JPEG
vgg,2,1110,NaN,dog,bird,0.60,2390_nse_dnn_0.60_bird_10_n01592084_5859.JPEG
vgg,2,1111,NaN,dog,dog,0.60,2391_nse_dnn_0.60_dog_10_n02091032_10288.JPEG
vgg,2,1112,NaN,dog,dog,0.60,2392_nse_dnn_0.60_dog_10_n02097047_3230.JPEG
vgg,2,1113,NaN,dog,dog,0.60,2393_nse_dnn_0.60_dog_10_n02092002_1339.JPEG
vgg,2,1114,NaN,dog,dog,0.60,2394_nse_dnn_0.60_dog_10_n02090721_6668.JPEG
vgg,2,1115,NaN,dog,dog,0.60,2395_nse_dnn_0.60_dog_10_n02101388_9597.JPEG
vgg,2,1116,NaN,bottle,dog,0.60,2396_nse_dnn_0.60_dog_10_n02100236_9252.JPEG
vgg,2,1117,NaN,dog,dog,0.60,2397_nse_dnn_0.60_dog_10_n02098286_1310.JPEG
vgg,2,1118,NaN,bottle,dog,0.60,2398_nse_dnn_0.60_dog_10_n02110806_811.JPEG
vgg,2,1119,NaN,bird,dog,0.60,2399_nse_dnn_0.60_dog_10_n02093754_2239.JPEG
vgg,2,1120,NaN,bottle,dog,0.60,2400_nse_dnn_0.60_dog_10_n02105855_13303.JPEG
vgg,2,1121,NaN,dog,knife,0.90,2401_nse_dnn_0.90_knife_10_n03041632_32292.JPEG
vgg,2,1122,NaN,bottle,knife,0.90,2402_nse_dnn_0.90_knife_10_n03041632_23736.JPEG
vgg,2,1123,NaN,dog,knife,0.90,2403_nse_dnn_0.90_knife_10_n03041632_56172.JPEG
vgg,2,1124,NaN,bottle,knife,0.90,2404_nse_dnn_0.90_knife_10_n03041632_30286.JPEG
vgg,2,1125,NaN,bottle,knife,0.90,2405_nse_dnn_0.90_knife_10_n03041632_19971.JPEG
vgg,2,1126,NaN,bird,knife,0.90,2406_nse_dnn_0.90_knife_10_n03041632_22241.JPEG
vgg,2,1127,NaN,dog,knife,0.90,2407_nse_dnn_0.90_knife_10_n03041632_94202.JPEG
vgg,2,1128,NaN,dog,knife,0.90,2408_nse_dnn_0.90_knife_10_n03041632_24998.JPEG
vgg,2,1129,NaN,bird,knife,0.90,2409_nse_dnn_0.90_knife_10_n03041632_1661.JPEG
vgg,2,1130,NaN,bottle,knife,0.90,2410_nse_dnn_0.90_knife_10_n03041632_83826.JPEG
vgg,2,1131,NaN,dog,keyboard,0.90,2411_nse_dnn_0.90_keyboard_10_n03085013_21607.JPEG
vgg,2,1132,NaN,dog,keyboard,0.90,2412_nse_dnn_0.90_keyboard_10_n03085013_6405.JPEG
vgg,2,1133,NaN,dog,keyboard,0.90,2413_nse_dnn_0.90_keyboard_10_n03085013_16636.JPEG
vgg,2,1134,NaN,bottle,keyboard,0.90,2414_nse_dnn_0.90_keyboard_10_n04505470_2654.JPEG
vgg,2,1135,NaN,dog,keyboard,0.90,2415_nse_dnn_0.90_keyboard_10_n04505470_4592.JPEG
vgg,2,1136,NaN,dog,keyboard,0.90,2416_nse_dnn_0.90_keyboard_10_n04505470_2306.JPEG
vgg,2,1137,NaN,bottle,keyboard,0.90,2417_nse_dnn_0.90_keyboard_10_n03085013_4542.JPEG
vgg,2,1138,NaN,bottle,keyboard,0.90,2418_nse_dnn_0.90_keyboard_10_n04505470_2825.JPEG
vgg,2,1139,NaN,bottle,keyboard,0.90,2419_nse_dnn_0.90_keyboard_10_n03085013_24150.JPEG
vgg,2,1140,NaN,bird,keyboard,0.90,2420_nse_dnn_0.90_keyboard_10_n04505470_4611.JPEG
vgg,2,1141,NaN,dog,elephant,0.90,2421_nse_dnn_0.90_elephant_10_n02504013_5582.JPEG
vgg,2,1142,NaN,dog,elephant,0.90,2422_nse_dnn_0.90_elephant_10_n02504458_817.JPEG
vgg,2,1143,NaN,bottle,elephant,0.90,2423_nse_dnn_0.90_elephant_10_n02504458_8422.JPEG
vgg,2,1144,NaN,bottle,elephant,0.90,2424_nse_dnn_0.90_elephant_10_n02504013_4247.JPEG
vgg,2,1145,NaN,bottle,elephant,0.90,2425_nse_dnn_0.90_elephant_10_n02504013_19236.JPEG
vgg,2,1146,NaN,dog,elephant,0.90,2426_nse_dnn_0.90_elephant_10_n02504013_10922.JPEG
vgg,2,1147,NaN,bottle,elephant,0.90,2427_nse_dnn_0.90_elephant_10_n02504458_2109.JPEG
vgg,2,1148,NaN,bird,elephant,0.90,2428_nse_dnn_0.90_elephant_10_n02504458_13245.JPEG
vgg,2,1149,NaN,bottle,elephant,0.90,2429_nse_dnn_0.90_elephant_10_n02504458_3731.JPEG
vgg,2,1150,NaN,dog,elephant,0.90,2430_nse_dnn_0.90_elephant_10_n02504458_3163.JPEG
vgg,2,1151,NaN,dog,bicycle,0.90,2431_nse_dnn_0.90_bicycle_10_n03792782_17737.JPEG
vgg,2,1152,NaN,dog,bicycle,0.90,2432_nse_dnn_0.90_bicycle_10_n02835271_508.JPEG
vgg,2,1153,NaN,bottle,bicycle,0.90,2433_nse_dnn_0.90_bicycle_10_n03792782_7773.JPEG
vgg,2,1154,NaN,bottle,bicycle,0.90,2434_nse_dnn_0.90_bicycle_10_n03792782_23560.JPEG
vgg,2,1155,NaN,dog,bicycle,0.90,2435_nse_dnn_0.90_bicycle_10_n02835271_3466.JPEG
vgg,2,1156,NaN,bottle,bicycle,0.90,2436_nse_dnn_0.90_bicycle_10_n03792782_521.JPEG
vgg,2,1157,NaN,dog,bicycle,0.90,2437_nse_dnn_0.90_bicycle_10_n03792782_7165.JPEG
vgg,2,1158,NaN,bird,bicycle,0.90,2438_nse_dnn_0.90_bicycle_10_n02835271_18276.JPEG
vgg,2,1159,NaN,bird,bicycle,0.90,2439_nse_dnn_0.90_bicycle_10_n02835271_14176.JPEG
vgg,2,1160,NaN,dog,bicycle,0.90,2440_nse_dnn_0.90_bicycle_10_n03792782_57971.JPEG
vgg,2,1161,NaN,dog,airplane,0.90,2441_nse_dnn_0.90_airplane_10_n02690373_2070.JPEG
vgg,2,1162,NaN,bird,airplane,0.90,2442_nse_dnn_0.90_airplane_10_n02690373_10228.JPEG
vgg,2,1163,NaN,bottle,airplane,0.90,2443_nse_dnn_0.90_airplane_10_n02690373_13326.JPEG
vgg,2,1164,NaN,bottle,airplane,0.90,2444_nse_dnn_0.90_airplane_10_n02690373_6212.JPEG
vgg,2,1165,NaN,bird,airplane,0.90,2445_nse_dnn_0.90_airplane_10_n02690373_1051.JPEG
vgg,2,1166,NaN,dog,airplane,0.90,2446_nse_dnn_0.90_airplane_10_n02690373_9086.JPEG
vgg,2,1167,NaN,dog,airplane,0.90,2447_nse_dnn_0.90_airplane_10_n02690373_19749.JPEG
vgg,2,1168,NaN,dog,airplane,0.90,2448_nse_dnn_0.90_airplane_10_n02690373_5106.JPEG
vgg,2,1169,NaN,bird,airplane,0.90,2449_nse_dnn_0.90_airplane_10_n02690373_5693.JPEG
vgg,2,1170,NaN,bottle,airplane,0.90,2450_nse_dnn_0.90_airplane_10_n02690373_4199.JPEG
vgg,2,1171,NaN,dog,clock,0.90,2451_nse_dnn_0.90_clock_10_n03196217_5688.JPEG
vgg,2,1172,NaN,bottle,clock,0.90,2452_nse_dnn_0.90_clock_10_n02708093_596.JPEG
vgg,2,1173,NaN,bottle,clock,0.90,2453_nse_dnn_0.90_clock_10_n04548280_2943.JPEG
vgg,2,1174,NaN,dog,clock,0.90,2454_nse_dnn_0.90_clock_10_n03196217_2291.JPEG
vgg,2,1175,NaN,bottle,clock,0.90,2455_nse_dnn_0.90_clock_10_n02708093_3550.JPEG
vgg,2,1176,NaN,bird,clock,0.90,2456_nse_dnn_0.90_clock_10_n03196217_21.JPEG
vgg,2,1177,NaN,dog,clock,0.90,2457_nse_dnn_0.90_clock_10_n03196217_713.JPEG
vgg,2,1178,NaN,dog,clock,0.90,2458_nse_dnn_0.90_clock_10_n02708093_3723.JPEG
vgg,2,1179,NaN,bottle,clock,0.90,2459_nse_dnn_0.90_clock_10_n04548280_2776.JPEG
vgg,2,1180,NaN,dog,clock,0.90,2460_nse_dnn_0.90_clock_10_n02708093_3674.JPEG
vgg,2,1181,NaN,dog,oven,0.90,2461_nse_dnn_0.90_oven_10_n04111531_16463.JPEG
vgg,2,1182,NaN,bird,oven,0.90,2462_nse_dnn_0.90_oven_10_n04111531_537.JPEG
vgg,2,1183,NaN,bottle,oven,0.90,2463_nse_dnn_0.90_oven_10_n04111531_1303.JPEG
vgg,2,1184,NaN,bottle,oven,0.90,2464_nse_dnn_0.90_oven_10_n04111531_9762.JPEG
vgg,2,1185,NaN,bird,oven,0.90,2465_nse_dnn_0.90_oven_10_n04111531_3777.JPEG
vgg,2,1186,NaN,bottle,oven,0.90,2466_nse_dnn_0.90_oven_10_n04111531_5802.JPEG
vgg,2,1187,NaN,bottle,oven,0.90,2467_nse_dnn_0.90_oven_10_n04111531_11230.JPEG
vgg,2,1188,NaN,bottle,oven,0.90,2468_nse_dnn_0.90_oven_10_n04111531_10093.JPEG
vgg,2,1189,NaN,bottle,oven,0.90,2469_nse_dnn_0.90_oven_10_n04111531_16708.JPEG
vgg,2,1190,NaN,bird,oven,0.90,2470_nse_dnn_0.90_oven_10_n04111531_1073.JPEG
vgg,2,1191,NaN,bottle,chair,0.90,2471_nse_dnn_0.90_chair_10_n04099969_7471.JPEG
vgg,2,1192,NaN,dog,chair,0.90,2472_nse_dnn_0.90_chair_10_n04099969_3657.JPEG
vgg,2,1193,NaN,bird,chair,0.90,2473_nse_dnn_0.90_chair_10_n04099969_16669.JPEG
vgg,2,1194,NaN,bird,chair,0.90,2474_nse_dnn_0.90_chair_10_n03376595_8228.JPEG
vgg,2,1195,NaN,dog,chair,0.90,2475_nse_dnn_0.90_chair_10_n04099969_12456.JPEG
vgg,2,1196,NaN,dog,chair,0.90,2476_nse_dnn_0.90_chair_10_n02791124_1240.JPEG
vgg,2,1197,NaN,dog,chair,0.90,2477_nse_dnn_0.90_chair_10_n02791124_424.JPEG
vgg,2,1198,NaN,dog,chair,0.90,2478_nse_dnn_0.90_chair_10_n04099969_6944.JPEG
vgg,2,1199,NaN,dog,chair,0.90,2479_nse_dnn_0.90_chair_10_n02791124_3184.JPEG
vgg,2,1200,NaN,dog,chair,0.90,2480_nse_dnn_0.90_chair_10_n03376595_9925.JPEG
vgg,2,1201,NaN,dog,bear,0.90,2481_nse_dnn_0.90_bear_10_n02134084_2865.JPEG
vgg,2,1202,NaN,dog,bear,0.90,2482_nse_dnn_0.90_bear_10_n02133161_1944.JPEG
vgg,2,1203,NaN,dog,bear,0.90,2483_nse_dnn_0.90_bear_10_n02132136_5517.JPEG
vgg,2,1204,NaN,dog,bear,0.90,2484_nse_dnn_0.90_bear_10_n02134084_6702.JPEG
vgg,2,1205,NaN,bird,bear,0.90,2485_nse_dnn_0.90_bear_10_n02132136_11339.JPEG
vgg,2,1206,NaN,dog,bear,0.90,2486_nse_dnn_0.90_bear_10_n02134418_998.JPEG
vgg,2,1207,NaN,bird,bear,0.90,2487_nse_dnn_0.90_bear_10_n02134084_9539.JPEG
vgg,2,1208,NaN,dog,bear,0.90,2488_nse_dnn_0.90_bear_10_n02133161_7351.JPEG
vgg,2,1209,NaN,dog,bear,0.90,2489_nse_dnn_0.90_bear_10_n02134418_664.JPEG
vgg,2,1210,NaN,dog,bear,0.90,2490_nse_dnn_0.90_bear_10_n02132136_8301.JPEG
vgg,2,1211,NaN,dog,boat,0.90,2491_nse_dnn_0.90_boat_10_n02951358_5385.JPEG
vgg,2,1212,NaN,bird,boat,0.90,2492_nse_dnn_0.90_boat_10_n03344393_7942.JPEG
vgg,2,1213,NaN,bird,boat,0.90,2493_nse_dnn_0.90_boat_10_n03662601_3584.JPEG
vgg,2,1214,NaN,dog,boat,0.90,2494_nse_dnn_0.90_boat_10_n04612504_30603.JPEG
vgg,2,1215,NaN,bird,boat,0.90,2495_nse_dnn_0.90_boat_10_n03344393_595.JPEG
vgg,2,1216,NaN,dog,boat,0.90,2496_nse_dnn_0.90_boat_10_n02951358_55.JPEG
vgg,2,1217,NaN,dog,boat,0.90,2497_nse_dnn_0.90_boat_10_n02951358_3205.JPEG
vgg,2,1218,NaN,bottle,boat,0.90,2498_nse_dnn_0.90_boat_10_n03662601_8554.JPEG
vgg,2,1219,NaN,dog,boat,0.90,2499_nse_dnn_0.90_boat_10_n03662601_21599.JPEG
vgg,2,1220,NaN,dog,boat,0.90,2500_nse_dnn_0.90_boat_10_n02951358_6147.JPEG
vgg,2,1221,NaN,dog,cat,0.90,2501_nse_dnn_0.90_cat_10_n02124075_20295.JPEG
vgg,2,1222,NaN,dog,cat,0.90,2502_nse_dnn_0.90_cat_10_n02123159_1163.JPEG
vgg,2,1223,NaN,dog,cat,0.90,2503_nse_dnn_0.90_cat_10_n02124075_6457.JPEG
vgg,2,1224,NaN,bottle,cat,0.90,2504_nse_dnn_0.90_cat_10_n02123394_10335.JPEG
vgg,2,1225,NaN,bird,cat,0.90,2505_nse_dnn_0.90_cat_10_n02123597_2220.JPEG
vgg,2,1226,NaN,dog,cat,0.90,2506_nse_dnn_0.90_cat_10_n02124075_1226.JPEG
vgg,2,1227,NaN,bird,cat,0.90,2507_nse_dnn_0.90_cat_10_n02123045_9839.JPEG
vgg,2,1228,NaN,bird,cat,0.90,2508_nse_dnn_0.90_cat_10_n02125311_60133.JPEG
vgg,2,1229,NaN,dog,cat,0.90,2509_nse_dnn_0.90_cat_10_n02123159_3804.JPEG
vgg,2,1230,NaN,dog,cat,0.90,2510_nse_dnn_0.90_cat_10_n02124075_4933.JPEG
vgg,2,1231,NaN,dog,bottle,0.90,2511_nse_dnn_0.90_bottle_10_n03937543_7239.JPEG
vgg,2,1232,NaN,bottle,bottle,0.90,2512_nse_dnn_0.90_bottle_10_n04591713_6290.JPEG
vgg,2,1233,NaN,bottle,bottle,0.90,2513_nse_dnn_0.90_bottle_10_n02823428_2569.JPEG
vgg,2,1234,NaN,dog,bottle,0.90,2514_nse_dnn_0.90_bottle_10_n03937543_19.JPEG
vgg,2,1235,NaN,bottle,bottle,0.90,2515_nse_dnn_0.90_bottle_10_n02823428_12643.JPEG
vgg,2,1236,NaN,dog,bottle,0.90,2516_nse_dnn_0.90_bottle_10_n03937543_1658.JPEG
vgg,2,1237,NaN,bottle,bottle,0.90,2517_nse_dnn_0.90_bottle_10_n04560804_4531.JPEG
vgg,2,1238,NaN,dog,bottle,0.90,2518_nse_dnn_0.90_bottle_10_n04560804_15136.JPEG
vgg,2,1239,NaN,bottle,bottle,0.90,2519_nse_dnn_0.90_bottle_10_n04560804_26652.JPEG
vgg,2,1240,NaN,bottle,bottle,0.90,2520_nse_dnn_0.90_bottle_10_n04591713_3438.JPEG
vgg,2,1241,NaN,dog,truck,0.90,2521_nse_dnn_0.90_truck_10_n03796401_14015.JPEG
vgg,2,1242,NaN,bottle,truck,0.90,2522_nse_dnn_0.90_truck_10_n03417042_4600.JPEG
vgg,2,1243,NaN,bird,truck,0.90,2523_nse_dnn_0.90_truck_10_n04467665_51949.JPEG
vgg,2,1244,NaN,dog,truck,0.90,2524_nse_dnn_0.90_truck_10_n03796401_29480.JPEG
vgg,2,1245,NaN,bottle,truck,0.90,2525_nse_dnn_0.90_truck_10_n04467665_3537.JPEG
vgg,2,1246,NaN,bird,truck,0.90,2526_nse_dnn_0.90_truck_10_n03796401_6184.JPEG
vgg,2,1247,NaN,dog,truck,0.90,2527_nse_dnn_0.90_truck_10_n03796401_3700.JPEG
vgg,2,1248,NaN,bird,truck,0.90,2528_nse_dnn_0.90_truck_10_n03796401_7438.JPEG
vgg,2,1249,NaN,bottle,truck,0.90,2529_nse_dnn_0.90_truck_10_n03417042_8700.JPEG
vgg,2,1250,NaN,dog,truck,0.90,2530_nse_dnn_0.90_truck_10_n03796401_2514.JPEG
vgg,2,1251,NaN,dog,car,0.90,2531_nse_dnn_0.90_car_10_n03100240_3017.JPEG
vgg,2,1252,NaN,bottle,car,0.90,2532_nse_dnn_0.90_car_10_n03100240_1390.JPEG
vgg,2,1253,NaN,bird,car,0.90,2533_nse_dnn_0.90_car_10_n03100240_14533.JPEG
vgg,2,1254,NaN,dog,car,0.90,2534_nse_dnn_0.90_car_10_n03100240_11614.JPEG
vgg,2,1255,NaN,bottle,car,0.90,2535_nse_dnn_0.90_car_10_n02814533_67126.JPEG
vgg,2,1256,NaN,bottle,car,0.90,2536_nse_dnn_0.90_car_10_n04285008_2792.JPEG
vgg,2,1257,NaN,bottle,car,0.90,2537_nse_dnn_0.90_car_10_n04285008_5631.JPEG
vgg,2,1258,NaN,dog,car,0.90,2538_nse_dnn_0.90_car_10_n04285008_10393.JPEG
vgg,2,1259,NaN,dog,car,0.90,2539_nse_dnn_0.90_car_10_n02814533_16998.JPEG
vgg,2,1260,NaN,dog,car,0.90,2540_nse_dnn_0.90_car_10_n02814533_43727.JPEG
vgg,2,1261,NaN,dog,bird,0.90,2541_nse_dnn_0.90_bird_10_n01817953_29542.JPEG
vgg,2,1262,NaN,dog,bird,0.90,2542_nse_dnn_0.90_bird_10_n01614925_14064.JPEG
vgg,2,1263,NaN,dog,bird,0.90,2543_nse_dnn_0.90_bird_10_n01614925_18773.JPEG
vgg,2,1264,NaN,bird,bird,0.90,2544_nse_dnn_0.90_bird_10_n01798484_15439.JPEG
