subj,session,trial,rt,object_response,category,condition,imagename
alexnet,3,1,NaN,bird,knife,c100,2561_con_dnn_c100_knife_10_n03041632_29886.JPEG
alexnet,3,2,NaN,knife,knife,c100,2562_con_dnn_c100_knife_10_n03041632_46103.JPEG
alexnet,3,3,NaN,keyboard,knife,c100,2563_con_dnn_c100_knife_10_n03041632_82197.JPEG
alexnet,3,4,NaN,chair,knife,c100,2564_con_dnn_c100_knife_10_n03041632_3101.JPEG
alexnet,3,5,NaN,chair,knife,c100,2565_con_dnn_c100_knife_10_n03041632_94202.JPEG
alexnet,3,6,NaN,bottle,knife,c100,2566_con_dnn_c100_knife_10_n03041632_38433.JPEG
alexnet,3,7,NaN,chair,knife,c100,2567_con_dnn_c100_knife_10_n03041632_16104.JPEG
alexnet,3,8,NaN,knife,knife,c100,2568_con_dnn_c100_knife_10_n03041632_8666.JPEG
alexnet,3,9,NaN,bottle,knife,c100,2569_con_dnn_c100_knife_10_n03041632_10000.JPEG
alexnet,3,10,NaN,keyboard,knife,c100,2570_con_dnn_c100_knife_10_n03041632_7707.JPEG
alexnet,3,11,NaN,keyboard,keyboard,c100,2571_con_dnn_c100_keyboard_10_n04505470_5145.JPEG
alexnet,3,12,NaN,keyboard,keyboard,c100,2572_con_dnn_c100_keyboard_10_n03085013_14237.JPEG
alexnet,3,13,NaN,keyboard,keyboard,c100,2573_con_dnn_c100_keyboard_10_n04505470_3852.JPEG
alexnet,3,14,NaN,keyboard,keyboard,c100,2574_con_dnn_c100_keyboard_10_n03085013_5349.JPEG
alexnet,3,15,NaN,keyboard,keyboard,c100,2575_con_dnn_c100_keyboard_10_n04505470_2130.JPEG
alexnet,3,16,NaN,keyboard,keyboard,c100,2576_con_dnn_c100_keyboard_10_n04505470_2035.JPEG
alexnet,3,17,NaN,bottle,keyboard,c100,2577_con_dnn_c100_keyboard_10_n03085013_21339.JPEG
alexnet,3,18,NaN,keyboard,keyboard,c100,2578_con_dnn_c100_keyboard_10_n03085013_21615.JPEG
alexnet,3,19,NaN,keyboard,keyboard,c100,2579_con_dnn_c100_keyboard_10_n03085013_24257.JPEG
alexnet,3,20,NaN,keyboard,keyboard,c100,2580_con_dnn_c100_keyboard_10_n04505470_2109.JPEG
alexnet,3,21,NaN,elephant,elephant,c100,2581_con_dnn_c100_elephant_10_n02504458_863.JPEG
alexnet,3,22,NaN,elephant,elephant,c100,2582_con_dnn_c100_elephant_10_n02504013_5225.JPEG
alexnet,3,23,NaN,elephant,elephant,c100,2583_con_dnn_c100_elephant_10_n02504458_6464.JPEG
alexnet,3,24,NaN,elephant,elephant,c100,2584_con_dnn_c100_elephant_10_n02504458_7835.JPEG
alexnet,3,25,NaN,elephant,elephant,c100,2585_con_dnn_c100_elephant_10_n02504013_1187.JPEG
alexnet,3,26,NaN,elephant,elephant,c100,2586_con_dnn_c100_elephant_10_n02504013_319.JPEG
alexnet,3,27,NaN,elephant,elephant,c100,2587_con_dnn_c100_elephant_10_n02504013_4436.JPEG
alexnet,3,28,NaN,elephant,elephant,c100,2588_con_dnn_c100_elephant_10_n02504458_4564.JPEG
alexnet,3,29,NaN,elephant,elephant,c100,2589_con_dnn_c100_elephant_10_n02504013_24713.JPEG
alexnet,3,30,NaN,elephant,elephant,c100,2590_con_dnn_c100_elephant_10_n02504458_2835.JPEG
alexnet,3,31,NaN,bicycle,bicycle,c100,2591_con_dnn_c100_bicycle_10_n03792782_16443.JPEG
alexnet,3,32,NaN,bicycle,bicycle,c100,2592_con_dnn_c100_bicycle_10_n03792782_24591.JPEG
alexnet,3,33,NaN,bicycle,bicycle,c100,2593_con_dnn_c100_bicycle_10_n03792782_51686.JPEG
alexnet,3,34,NaN,clock,bicycle,c100,2594_con_dnn_c100_bicycle_10_n02835271_14499.JPEG
alexnet,3,35,NaN,bicycle,bicycle,c100,2595_con_dnn_c100_bicycle_10_n03792782_6133.JPEG
alexnet,3,36,NaN,bicycle,bicycle,c100,2596_con_dnn_c100_bicycle_10_n03792782_13110.JPEG
alexnet,3,37,NaN,bicycle,bicycle,c100,2597_con_dnn_c100_bicycle_10_n02835271_8498.JPEG
alexnet,3,38,NaN,bicycle,bicycle,c100,2598_con_dnn_c100_bicycle_10_n02835271_6923.JPEG
alexnet,3,39,NaN,bicycle,bicycle,c100,2599_con_dnn_c100_bicycle_10_n02835271_10293.JPEG
alexnet,3,40,NaN,bicycle,bicycle,c100,2600_con_dnn_c100_bicycle_10_n03792782_5699.JPEG
alexnet,3,41,NaN,airplane,airplane,c100,2601_con_dnn_c100_airplane_10_n02690373_1233.JPEG
alexnet,3,42,NaN,clock,airplane,c100,2602_con_dnn_c100_airplane_10_n02690373_2758.JPEG
alexnet,3,43,NaN,airplane,airplane,c100,2603_con_dnn_c100_airplane_10_n02690373_5056.JPEG
alexnet,3,44,NaN,airplane,airplane,c100,2604_con_dnn_c100_airplane_10_n02690373_3907.JPEG
alexnet,3,45,NaN,airplane,airplane,c100,2605_con_dnn_c100_airplane_10_n02690373_848.JPEG
alexnet,3,46,NaN,airplane,airplane,c100,2606_con_dnn_c100_airplane_10_n02690373_6147.JPEG
alexnet,3,47,NaN,airplane,airplane,c100,2607_con_dnn_c100_airplane_10_n02690373_3827.JPEG
alexnet,3,48,NaN,airplane,airplane,c100,2608_con_dnn_c100_airplane_10_n02690373_9720.JPEG
alexnet,3,49,NaN,airplane,airplane,c100,2609_con_dnn_c100_airplane_10_n02690373_1351.JPEG
alexnet,3,50,NaN,airplane,airplane,c100,2610_con_dnn_c100_airplane_10_n02690373_15966.JPEG
alexnet,3,51,NaN,clock,clock,c100,2611_con_dnn_c100_clock_10_n02708093_725.JPEG
alexnet,3,52,NaN,clock,clock,c100,2612_con_dnn_c100_clock_10_n02708093_3289.JPEG
alexnet,3,53,NaN,clock,clock,c100,2613_con_dnn_c100_clock_10_n03196217_8254.JPEG
alexnet,3,54,NaN,clock,clock,c100,2614_con_dnn_c100_clock_10_n03196217_2639.JPEG
alexnet,3,55,NaN,clock,clock,c100,2615_con_dnn_c100_clock_10_n03196217_108.JPEG
alexnet,3,56,NaN,clock,clock,c100,2616_con_dnn_c100_clock_10_n02708093_4289.JPEG
alexnet,3,57,NaN,clock,clock,c100,2617_con_dnn_c100_clock_10_n02708093_451.JPEG
alexnet,3,58,NaN,keyboard,clock,c100,2618_con_dnn_c100_clock_10_n04548280_662.JPEG
alexnet,3,59,NaN,clock,clock,c100,2619_con_dnn_c100_clock_10_n04548280_6039.JPEG
alexnet,3,60,NaN,clock,clock,c100,2620_con_dnn_c100_clock_10_n03196217_2695.JPEG
alexnet,3,61,NaN,bird,oven,c100,2621_con_dnn_c100_oven_10_n04111531_6933.JPEG
alexnet,3,62,NaN,oven,oven,c100,2622_con_dnn_c100_oven_10_n04111531_2650.JPEG
alexnet,3,63,NaN,oven,oven,c100,2623_con_dnn_c100_oven_10_n04111531_2592.JPEG
alexnet,3,64,NaN,oven,oven,c100,2624_con_dnn_c100_oven_10_n04111531_1898.JPEG
alexnet,3,65,NaN,oven,oven,c100,2625_con_dnn_c100_oven_10_n04111531_9881.JPEG
alexnet,3,66,NaN,dog,oven,c100,2626_con_dnn_c100_oven_10_n04111531_21011.JPEG
alexnet,3,67,NaN,chair,oven,c100,2627_con_dnn_c100_oven_10_n04111531_21173.JPEG
alexnet,3,68,NaN,chair,oven,c100,2628_con_dnn_c100_oven_10_n04111531_2024.JPEG
alexnet,3,69,NaN,oven,oven,c100,2629_con_dnn_c100_oven_10_n04111531_23668.JPEG
alexnet,3,70,NaN,oven,oven,c100,2630_con_dnn_c100_oven_10_n04111531_9208.JPEG
alexnet,3,71,NaN,chair,chair,c100,2631_con_dnn_c100_chair_10_n04429376_5202.JPEG
alexnet,3,72,NaN,chair,chair,c100,2632_con_dnn_c100_chair_10_n04429376_18227.JPEG
alexnet,3,73,NaN,chair,chair,c100,2633_con_dnn_c100_chair_10_n04429376_4601.JPEG
alexnet,3,74,NaN,chair,chair,c100,2634_con_dnn_c100_chair_10_n04099969_51294.JPEG
alexnet,3,75,NaN,chair,chair,c100,2635_con_dnn_c100_chair_10_n02791124_1437.JPEG
alexnet,3,76,NaN,chair,chair,c100,2636_con_dnn_c100_chair_10_n02791124_15790.JPEG
alexnet,3,77,NaN,chair,chair,c100,2637_con_dnn_c100_chair_10_n04429376_18301.JPEG
alexnet,3,78,NaN,chair,chair,c100,2638_con_dnn_c100_chair_10_n02791124_2804.JPEG
alexnet,3,79,NaN,chair,chair,c100,2639_con_dnn_c100_chair_10_n03376595_18690.JPEG
alexnet,3,80,NaN,chair,chair,c100,2640_con_dnn_c100_chair_10_n02791124_690.JPEG
alexnet,3,81,NaN,bear,bear,c100,2641_con_dnn_c100_bear_10_n02133161_1703.JPEG
alexnet,3,82,NaN,dog,bear,c100,2642_con_dnn_c100_bear_10_n02134084_965.JPEG
alexnet,3,83,NaN,bear,bear,c100,2643_con_dnn_c100_bear_10_n02134418_5976.JPEG
alexnet,3,84,NaN,bear,bear,c100,2644_con_dnn_c100_bear_10_n02134084_5903.JPEG
alexnet,3,85,NaN,dog,bear,c100,2645_con_dnn_c100_bear_10_n02134418_2044.JPEG
alexnet,3,86,NaN,bear,bear,c100,2646_con_dnn_c100_bear_10_n02133161_8982.JPEG
alexnet,3,87,NaN,bear,bear,c100,2647_con_dnn_c100_bear_10_n02132136_4849.JPEG
alexnet,3,88,NaN,dog,bear,c100,2648_con_dnn_c100_bear_10_n02134418_1076.JPEG
alexnet,3,89,NaN,bear,bear,c100,2649_con_dnn_c100_bear_10_n02133161_4272.JPEG
alexnet,3,90,NaN,dog,bear,c100,2650_con_dnn_c100_bear_10_n02133161_1739.JPEG
alexnet,3,91,NaN,boat,boat,c100,2651_con_dnn_c100_boat_10_n02951358_15876.JPEG
alexnet,3,92,NaN,boat,boat,c100,2652_con_dnn_c100_boat_10_n04612504_39743.JPEG
alexnet,3,93,NaN,chair,boat,c100,2653_con_dnn_c100_boat_10_n03344393_1699.JPEG
alexnet,3,94,NaN,boat,boat,c100,2654_con_dnn_c100_boat_10_n03662601_13156.JPEG
alexnet,3,95,NaN,elephant,boat,c100,2655_con_dnn_c100_boat_10_n04612504_8958.JPEG
alexnet,3,96,NaN,boat,boat,c100,2656_con_dnn_c100_boat_10_n02951358_30100.JPEG
alexnet,3,97,NaN,boat,boat,c100,2657_con_dnn_c100_boat_10_n03344393_5798.JPEG
alexnet,3,98,NaN,boat,boat,c100,2658_con_dnn_c100_boat_10_n03662601_8410.JPEG
alexnet,3,99,NaN,boat,boat,c100,2659_con_dnn_c100_boat_10_n03344393_3337.JPEG
alexnet,3,100,NaN,boat,boat,c100,2660_con_dnn_c100_boat_10_n04273569_5826.JPEG
alexnet,3,101,NaN,dog,cat,c100,2661_con_dnn_c100_cat_10_n02123045_3551.JPEG
alexnet,3,102,NaN,cat,cat,c100,2662_con_dnn_c100_cat_10_n02123597_4223.JPEG
alexnet,3,103,NaN,cat,cat,c100,2663_con_dnn_c100_cat_10_n02123045_8630.JPEG
alexnet,3,104,NaN,cat,cat,c100,2664_con_dnn_c100_cat_10_n02123045_6534.JPEG
alexnet,3,105,NaN,cat,cat,c100,2665_con_dnn_c100_cat_10_n02124075_2289.JPEG
alexnet,3,106,NaN,dog,cat,c100,2666_con_dnn_c100_cat_10_n02123597_11529.JPEG
alexnet,3,107,NaN,cat,cat,c100,2667_con_dnn_c100_cat_10_n02123045_6618.JPEG
alexnet,3,108,NaN,cat,cat,c100,2668_con_dnn_c100_cat_10_n02125311_5424.JPEG
alexnet,3,109,NaN,cat,cat,c100,2669_con_dnn_c100_cat_10_n02123045_9779.JPEG
alexnet,3,110,NaN,dog,cat,c100,2670_con_dnn_c100_cat_10_n02123597_2188.JPEG
alexnet,3,111,NaN,bottle,bottle,c100,2671_con_dnn_c100_bottle_10_n03937543_3108.JPEG
alexnet,3,112,NaN,bottle,bottle,c100,2672_con_dnn_c100_bottle_10_n04591713_7672.JPEG
alexnet,3,113,NaN,bottle,bottle,c100,2673_con_dnn_c100_bottle_10_n04557648_11577.JPEG
alexnet,3,114,NaN,bottle,bottle,c100,2674_con_dnn_c100_bottle_10_n03937543_3511.JPEG
alexnet,3,115,NaN,bottle,bottle,c100,2675_con_dnn_c100_bottle_10_n04560804_15963.JPEG
alexnet,3,116,NaN,chair,bottle,c100,2676_con_dnn_c100_bottle_10_n03983396_1090.JPEG
alexnet,3,117,NaN,bottle,bottle,c100,2677_con_dnn_c100_bottle_10_n02823428_3469.JPEG
alexnet,3,118,NaN,clock,bottle,c100,2678_con_dnn_c100_bottle_10_n04557648_993.JPEG
alexnet,3,119,NaN,bottle,bottle,c100,2679_con_dnn_c100_bottle_10_n02823428_937.JPEG
alexnet,3,120,NaN,bottle,bottle,c100,2680_con_dnn_c100_bottle_10_n03983396_15493.JPEG
alexnet,3,121,NaN,truck,truck,c100,2681_con_dnn_c100_truck_10_n04467665_69878.JPEG
alexnet,3,122,NaN,truck,truck,c100,2682_con_dnn_c100_truck_10_n04467665_4239.JPEG
alexnet,3,123,NaN,truck,truck,c100,2683_con_dnn_c100_truck_10_n04467665_49389.JPEG
alexnet,3,124,NaN,truck,truck,c100,2684_con_dnn_c100_truck_10_n03796401_6487.JPEG
alexnet,3,125,NaN,truck,truck,c100,2685_con_dnn_c100_truck_10_n03417042_4560.JPEG
alexnet,3,126,NaN,truck,truck,c100,2686_con_dnn_c100_truck_10_n03417042_768.JPEG
alexnet,3,127,NaN,truck,truck,c100,2687_con_dnn_c100_truck_10_n04467665_73773.JPEG
alexnet,3,128,NaN,truck,truck,c100,2688_con_dnn_c100_truck_10_n04467665_1411.JPEG
alexnet,3,129,NaN,truck,truck,c100,2689_con_dnn_c100_truck_10_n04467665_37526.JPEG
alexnet,3,130,NaN,truck,truck,c100,2690_con_dnn_c100_truck_10_n03417042_2726.JPEG
alexnet,3,131,NaN,car,car,c100,2691_con_dnn_c100_car_10_n04285008_8443.JPEG
alexnet,3,132,NaN,car,car,c100,2692_con_dnn_c100_car_10_n03100240_15979.JPEG
alexnet,3,133,NaN,car,car,c100,2693_con_dnn_c100_car_10_n03100240_22290.JPEG
alexnet,3,134,NaN,car,car,c100,2694_con_dnn_c100_car_10_n02814533_1881.JPEG
alexnet,3,135,NaN,car,car,c100,2695_con_dnn_c100_car_10_n03100240_21521.JPEG
alexnet,3,136,NaN,car,car,c100,2696_con_dnn_c100_car_10_n02814533_479.JPEG
alexnet,3,137,NaN,car,car,c100,2697_con_dnn_c100_car_10_n03100240_18410.JPEG
alexnet,3,138,NaN,car,car,c100,2698_con_dnn_c100_car_10_n04285008_4969.JPEG
alexnet,3,139,NaN,car,car,c100,2699_con_dnn_c100_car_10_n04285008_5399.JPEG
alexnet,3,140,NaN,chair,car,c100,2700_con_dnn_c100_car_10_n03100240_7946.JPEG
alexnet,3,141,NaN,bird,bird,c100,2701_con_dnn_c100_bird_10_n01817953_585.JPEG
alexnet,3,142,NaN,dog,bird,c100,2702_con_dnn_c100_bird_10_n01798484_1883.JPEG
alexnet,3,143,NaN,bird,bird,c100,2703_con_dnn_c100_bird_10_n01843383_8740.JPEG
alexnet,3,144,NaN,bird,bird,c100,2704_con_dnn_c100_bird_10_n01622779_13837.JPEG
alexnet,3,145,NaN,bird,bird,c100,2705_con_dnn_c100_bird_10_n01601694_22768.JPEG
alexnet,3,146,NaN,bird,bird,c100,2706_con_dnn_c100_bird_10_n01534433_5179.JPEG
alexnet,3,147,NaN,bird,bird,c100,2707_con_dnn_c100_bird_10_n01820546_1427.JPEG
alexnet,3,148,NaN,bird,bird,c100,2708_con_dnn_c100_bird_10_n01843383_11555.JPEG
alexnet,3,149,NaN,bird,bird,c100,2709_con_dnn_c100_bird_10_n02017213_5600.JPEG
alexnet,3,150,NaN,bird,bird,c100,2710_con_dnn_c100_bird_10_n01829413_6443.JPEG
alexnet,3,151,NaN,dog,dog,c100,2711_con_dnn_c100_dog_10_n02107908_10427.JPEG
alexnet,3,152,NaN,dog,dog,c100,2712_con_dnn_c100_dog_10_n02108422_7787.JPEG
alexnet,3,153,NaN,dog,dog,c100,2713_con_dnn_c100_dog_10_n02093754_541.JPEG
alexnet,3,154,NaN,dog,dog,c100,2714_con_dnn_c100_dog_10_n02098105_386.JPEG
alexnet,3,155,NaN,dog,dog,c100,2715_con_dnn_c100_dog_10_n02091244_7605.JPEG
alexnet,3,156,NaN,dog,dog,c100,2716_con_dnn_c100_dog_10_n02107683_3133.JPEG
alexnet,3,157,NaN,dog,dog,c100,2717_con_dnn_c100_dog_10_n02094114_2625.JPEG
alexnet,3,158,NaN,dog,dog,c100,2718_con_dnn_c100_dog_10_n02100236_485.JPEG
alexnet,3,159,NaN,dog,dog,c100,2719_con_dnn_c100_dog_10_n02105056_4232.JPEG
alexnet,3,160,NaN,dog,dog,c100,2720_con_dnn_c100_dog_10_n02095570_11034.JPEG
alexnet,3,161,NaN,bottle,knife,c50,2721_con_dnn_c50_knife_10_n03041632_15754.JPEG
alexnet,3,162,NaN,bottle,knife,c50,2722_con_dnn_c50_knife_10_n03041632_22964.JPEG
alexnet,3,163,NaN,knife,knife,c50,2723_con_dnn_c50_knife_10_n03041632_22286.JPEG
alexnet,3,164,NaN,dog,knife,c50,2724_con_dnn_c50_knife_10_n03041632_40508.JPEG
alexnet,3,165,NaN,knife,knife,c50,2725_con_dnn_c50_knife_10_n03041632_44738.JPEG
alexnet,3,166,NaN,keyboard,knife,c50,2726_con_dnn_c50_knife_10_n03041632_9488.JPEG
alexnet,3,167,NaN,knife,knife,c50,2727_con_dnn_c50_knife_10_n03041632_21165.JPEG
alexnet,3,168,NaN,knife,knife,c50,2728_con_dnn_c50_knife_10_n03041632_24798.JPEG
alexnet,3,169,NaN,chair,knife,c50,2729_con_dnn_c50_knife_10_n03041632_4037.JPEG
alexnet,3,170,NaN,dog,knife,c50,2730_con_dnn_c50_knife_10_n03041632_77022.JPEG
alexnet,3,171,NaN,keyboard,keyboard,c50,2731_con_dnn_c50_keyboard_10_n04505470_5111.JPEG
alexnet,3,172,NaN,keyboard,keyboard,c50,2732_con_dnn_c50_keyboard_10_n04505470_4906.JPEG
alexnet,3,173,NaN,keyboard,keyboard,c50,2733_con_dnn_c50_keyboard_10_n03085013_15081.JPEG
alexnet,3,174,NaN,keyboard,keyboard,c50,2734_con_dnn_c50_keyboard_10_n03085013_8867.JPEG
alexnet,3,175,NaN,keyboard,keyboard,c50,2735_con_dnn_c50_keyboard_10_n03085013_24111.JPEG
alexnet,3,176,NaN,keyboard,keyboard,c50,2736_con_dnn_c50_keyboard_10_n03085013_23563.JPEG
alexnet,3,177,NaN,keyboard,keyboard,c50,2737_con_dnn_c50_keyboard_10_n04505470_5007.JPEG
alexnet,3,178,NaN,keyboard,keyboard,c50,2738_con_dnn_c50_keyboard_10_n03085013_3815.JPEG
alexnet,3,179,NaN,keyboard,keyboard,c50,2739_con_dnn_c50_keyboard_10_n03085013_8325.JPEG
alexnet,3,180,NaN,clock,keyboard,c50,2740_con_dnn_c50_keyboard_10_n03085013_18907.JPEG
alexnet,3,181,NaN,elephant,elephant,c50,2741_con_dnn_c50_elephant_10_n02504458_1502.JPEG
alexnet,3,182,NaN,dog,elephant,c50,2742_con_dnn_c50_elephant_10_n02504458_1333.JPEG
alexnet,3,183,NaN,elephant,elephant,c50,2743_con_dnn_c50_elephant_10_n02504013_18988.JPEG
alexnet,3,184,NaN,elephant,elephant,c50,2744_con_dnn_c50_elephant_10_n02504013_22740.JPEG
alexnet,3,185,NaN,dog,elephant,c50,2745_con_dnn_c50_elephant_10_n02504013_7046.JPEG
alexnet,3,186,NaN,elephant,elephant,c50,2746_con_dnn_c50_elephant_10_n02504013_8905.JPEG
alexnet,3,187,NaN,elephant,elephant,c50,2747_con_dnn_c50_elephant_10_n02504013_7553.JPEG
alexnet,3,188,NaN,elephant,elephant,c50,2748_con_dnn_c50_elephant_10_n02504013_1251.JPEG
alexnet,3,189,NaN,elephant,elephant,c50,2749_con_dnn_c50_elephant_10_n02504013_5593.JPEG
alexnet,3,190,NaN,elephant,elephant,c50,2750_con_dnn_c50_elephant_10_n02504458_4448.JPEG
alexnet,3,191,NaN,bicycle,bicycle,c50,2751_con_dnn_c50_bicycle_10_n03792782_26289.JPEG
alexnet,3,192,NaN,bicycle,bicycle,c50,2752_con_dnn_c50_bicycle_10_n02835271_8982.JPEG
alexnet,3,193,NaN,dog,bicycle,c50,2753_con_dnn_c50_bicycle_10_n03792782_32232.JPEG
alexnet,3,194,NaN,bicycle,bicycle,c50,2754_con_dnn_c50_bicycle_10_n03792782_35904.JPEG
alexnet,3,195,NaN,bicycle,bicycle,c50,2755_con_dnn_c50_bicycle_10_n02835271_8287.JPEG
alexnet,3,196,NaN,bicycle,bicycle,c50,2756_con_dnn_c50_bicycle_10_n02835271_12903.JPEG
alexnet,3,197,NaN,bicycle,bicycle,c50,2757_con_dnn_c50_bicycle_10_n03792782_15616.JPEG
alexnet,3,198,NaN,bicycle,bicycle,c50,2758_con_dnn_c50_bicycle_10_n03792782_1418.JPEG
alexnet,3,199,NaN,bicycle,bicycle,c50,2759_con_dnn_c50_bicycle_10_n03792782_15757.JPEG
alexnet,3,200,NaN,bicycle,bicycle,c50,2760_con_dnn_c50_bicycle_10_n03792782_6926.JPEG
alexnet,3,201,NaN,chair,airplane,c50,2761_con_dnn_c50_airplane_10_n02690373_1492.JPEG
alexnet,3,202,NaN,airplane,airplane,c50,2762_con_dnn_c50_airplane_10_n02690373_9241.JPEG
alexnet,3,203,NaN,airplane,airplane,c50,2763_con_dnn_c50_airplane_10_n02690373_12964.JPEG
alexnet,3,204,NaN,airplane,airplane,c50,2764_con_dnn_c50_airplane_10_n02690373_19118.JPEG
alexnet,3,205,NaN,bottle,airplane,c50,2765_con_dnn_c50_airplane_10_n02690373_4079.JPEG
alexnet,3,206,NaN,airplane,airplane,c50,2766_con_dnn_c50_airplane_10_n02690373_4191.JPEG
alexnet,3,207,NaN,chair,airplane,c50,2767_con_dnn_c50_airplane_10_n02690373_4588.JPEG
alexnet,3,208,NaN,airplane,airplane,c50,2768_con_dnn_c50_airplane_10_n02690373_3408.JPEG
alexnet,3,209,NaN,airplane,airplane,c50,2769_con_dnn_c50_airplane_10_n02690373_3669.JPEG
alexnet,3,210,NaN,airplane,airplane,c50,2770_con_dnn_c50_airplane_10_n02690373_6856.JPEG
alexnet,3,211,NaN,clock,clock,c50,2771_con_dnn_c50_clock_10_n04548280_4670.JPEG
alexnet,3,212,NaN,clock,clock,c50,2772_con_dnn_c50_clock_10_n02708093_6918.JPEG
alexnet,3,213,NaN,clock,clock,c50,2773_con_dnn_c50_clock_10_n04548280_8990.JPEG
alexnet,3,214,NaN,clock,clock,c50,2774_con_dnn_c50_clock_10_n02708093_5734.JPEG
alexnet,3,215,NaN,clock,clock,c50,2775_con_dnn_c50_clock_10_n04548280_4841.JPEG
alexnet,3,216,NaN,clock,clock,c50,2776_con_dnn_c50_clock_10_n02708093_2512.JPEG
alexnet,3,217,NaN,clock,clock,c50,2777_con_dnn_c50_clock_10_n02708093_1427.JPEG
alexnet,3,218,NaN,clock,clock,c50,2778_con_dnn_c50_clock_10_n03196217_658.JPEG
alexnet,3,219,NaN,clock,clock,c50,2779_con_dnn_c50_clock_10_n04548280_1016.JPEG
alexnet,3,220,NaN,clock,clock,c50,2780_con_dnn_c50_clock_10_n03196217_3943.JPEG
alexnet,3,221,NaN,oven,oven,c50,2781_con_dnn_c50_oven_10_n04111531_5473.JPEG
alexnet,3,222,NaN,oven,oven,c50,2782_con_dnn_c50_oven_10_n04111531_20099.JPEG
alexnet,3,223,NaN,chair,oven,c50,2783_con_dnn_c50_oven_10_n04111531_18245.JPEG
alexnet,3,224,NaN,elephant,oven,c50,2784_con_dnn_c50_oven_10_n04111531_7072.JPEG
alexnet,3,225,NaN,oven,oven,c50,2785_con_dnn_c50_oven_10_n04111531_15710.JPEG
alexnet,3,226,NaN,bottle,oven,c50,2786_con_dnn_c50_oven_10_n04111531_9308.JPEG
alexnet,3,227,NaN,bottle,oven,c50,2787_con_dnn_c50_oven_10_n04111531_16583.JPEG
alexnet,3,228,NaN,knife,oven,c50,2788_con_dnn_c50_oven_10_n04111531_2960.JPEG
alexnet,3,229,NaN,dog,oven,c50,2789_con_dnn_c50_oven_10_n04111531_10884.JPEG
alexnet,3,230,NaN,airplane,oven,c50,2790_con_dnn_c50_oven_10_n04111531_5940.JPEG
alexnet,3,231,NaN,chair,chair,c50,2791_con_dnn_c50_chair_10_n04099969_1852.JPEG
alexnet,3,232,NaN,chair,chair,c50,2792_con_dnn_c50_chair_10_n04099969_5584.JPEG
alexnet,3,233,NaN,chair,chair,c50,2793_con_dnn_c50_chair_10_n03376595_697.JPEG
alexnet,3,234,NaN,chair,chair,c50,2794_con_dnn_c50_chair_10_n02791124_121.JPEG
alexnet,3,235,NaN,chair,chair,c50,2795_con_dnn_c50_chair_10_n04099969_14091.JPEG
alexnet,3,236,NaN,truck,chair,c50,2796_con_dnn_c50_chair_10_n03376595_130.JPEG
alexnet,3,237,NaN,chair,chair,c50,2797_con_dnn_c50_chair_10_n04099969_14610.JPEG
alexnet,3,238,NaN,chair,chair,c50,2798_con_dnn_c50_chair_10_n02791124_11456.JPEG
alexnet,3,239,NaN,chair,chair,c50,2799_con_dnn_c50_chair_10_n03376595_7035.JPEG
alexnet,3,240,NaN,chair,chair,c50,2800_con_dnn_c50_chair_10_n04429376_5159.JPEG
alexnet,3,241,NaN,bear,bear,c50,2801_con_dnn_c50_bear_10_n02132136_3635.JPEG
alexnet,3,242,NaN,elephant,bear,c50,2802_con_dnn_c50_bear_10_n02133161_491.JPEG
alexnet,3,243,NaN,dog,bear,c50,2803_con_dnn_c50_bear_10_n02134418_541.JPEG
alexnet,3,244,NaN,bear,bear,c50,2804_con_dnn_c50_bear_10_n02132136_23589.JPEG
alexnet,3,245,NaN,bear,bear,c50,2805_con_dnn_c50_bear_10_n02134084_5827.JPEG
alexnet,3,246,NaN,bear,bear,c50,2806_con_dnn_c50_bear_10_n02134418_4189.JPEG
alexnet,3,247,NaN,bear,bear,c50,2807_con_dnn_c50_bear_10_n02132136_2567.JPEG
alexnet,3,248,NaN,bear,bear,c50,2808_con_dnn_c50_bear_10_n02134418_282.JPEG
alexnet,3,249,NaN,bear,bear,c50,2809_con_dnn_c50_bear_10_n02132136_6607.JPEG
alexnet,3,250,NaN,bear,bear,c50,2810_con_dnn_c50_bear_10_n02134418_745.JPEG
alexnet,3,251,NaN,boat,boat,c50,2811_con_dnn_c50_boat_10_n03662601_557.JPEG
alexnet,3,252,NaN,truck,boat,c50,2812_con_dnn_c50_boat_10_n02951358_12987.JPEG
alexnet,3,253,NaN,chair,boat,c50,2813_con_dnn_c50_boat_10_n02951358_12027.JPEG
alexnet,3,254,NaN,boat,boat,c50,2814_con_dnn_c50_boat_10_n04273569_39.JPEG
alexnet,3,255,NaN,truck,boat,c50,2815_con_dnn_c50_boat_10_n03344393_4341.JPEG
alexnet,3,256,NaN,boat,boat,c50,2816_con_dnn_c50_boat_10_n02951358_12897.JPEG
alexnet,3,257,NaN,boat,boat,c50,2817_con_dnn_c50_boat_10_n04612504_5105.JPEG
alexnet,3,258,NaN,boat,boat,c50,2818_con_dnn_c50_boat_10_n03662601_2150.JPEG
alexnet,3,259,NaN,boat,boat,c50,2819_con_dnn_c50_boat_10_n03344393_8672.JPEG
alexnet,3,260,NaN,boat,boat,c50,2820_con_dnn_c50_boat_10_n02951358_32930.JPEG
alexnet,3,261,NaN,cat,cat,c50,2821_con_dnn_c50_cat_10_n02123597_9982.JPEG
alexnet,3,262,NaN,cat,cat,c50,2822_con_dnn_c50_cat_10_n02124075_5902.JPEG
alexnet,3,263,NaN,dog,cat,c50,2823_con_dnn_c50_cat_10_n02123597_10919.JPEG
alexnet,3,264,NaN,cat,cat,c50,2824_con_dnn_c50_cat_10_n02125311_11409.JPEG
alexnet,3,265,NaN,cat,cat,c50,2825_con_dnn_c50_cat_10_n02123045_20359.JPEG
alexnet,3,266,NaN,dog,cat,c50,2826_con_dnn_c50_cat_10_n02124075_12467.JPEG
alexnet,3,267,NaN,cat,cat,c50,2827_con_dnn_c50_cat_10_n02123159_8396.JPEG
alexnet,3,268,NaN,cat,cat,c50,2828_con_dnn_c50_cat_10_n02123159_4182.JPEG
alexnet,3,269,NaN,cat,cat,c50,2829_con_dnn_c50_cat_10_n02123394_4922.JPEG
alexnet,3,270,NaN,dog,cat,c50,2830_con_dnn_c50_cat_10_n02123159_1789.JPEG
alexnet,3,271,NaN,bottle,bottle,c50,2831_con_dnn_c50_bottle_10_n03983396_10060.JPEG
alexnet,3,272,NaN,bottle,bottle,c50,2832_con_dnn_c50_bottle_10_n03937543_5703.JPEG
alexnet,3,273,NaN,bottle,bottle,c50,2833_con_dnn_c50_bottle_10_n02823428_1272.JPEG
alexnet,3,274,NaN,keyboard,bottle,c50,2834_con_dnn_c50_bottle_10_n03983396_5519.JPEG
alexnet,3,275,NaN,clock,bottle,c50,2835_con_dnn_c50_bottle_10_n03983396_12497.JPEG
alexnet,3,276,NaN,bottle,bottle,c50,2836_con_dnn_c50_bottle_10_n03937543_6014.JPEG
alexnet,3,277,NaN,bottle,bottle,c50,2837_con_dnn_c50_bottle_10_n04579145_2485.JPEG
alexnet,3,278,NaN,bottle,bottle,c50,2838_con_dnn_c50_bottle_10_n03937543_4642.JPEG
alexnet,3,279,NaN,bottle,bottle,c50,2839_con_dnn_c50_bottle_10_n02823428_7157.JPEG
alexnet,3,280,NaN,knife,bottle,c50,2840_con_dnn_c50_bottle_10_n04557648_7341.JPEG
alexnet,3,281,NaN,truck,truck,c50,2841_con_dnn_c50_truck_10_n03796401_3210.JPEG
alexnet,3,282,NaN,truck,truck,c50,2842_con_dnn_c50_truck_10_n03796401_20093.JPEG
alexnet,3,283,NaN,truck,truck,c50,2843_con_dnn_c50_truck_10_n04467665_75078.JPEG
alexnet,3,284,NaN,truck,truck,c50,2844_con_dnn_c50_truck_10_n03796401_7073.JPEG
alexnet,3,285,NaN,truck,truck,c50,2845_con_dnn_c50_truck_10_n04467665_21266.JPEG
alexnet,3,286,NaN,truck,truck,c50,2846_con_dnn_c50_truck_10_n04467665_8674.JPEG
alexnet,3,287,NaN,truck,truck,c50,2847_con_dnn_c50_truck_10_n04467665_41163.JPEG
alexnet,3,288,NaN,truck,truck,c50,2848_con_dnn_c50_truck_10_n03417042_5779.JPEG
alexnet,3,289,NaN,truck,truck,c50,2849_con_dnn_c50_truck_10_n03796401_6675.JPEG
alexnet,3,290,NaN,truck,truck,c50,2850_con_dnn_c50_truck_10_n03417042_24856.JPEG
alexnet,3,291,NaN,truck,car,c50,2851_con_dnn_c50_car_10_n02814533_95669.JPEG
alexnet,3,292,NaN,car,car,c50,2852_con_dnn_c50_car_10_n02814533_34993.JPEG
alexnet,3,293,NaN,car,car,c50,2853_con_dnn_c50_car_10_n02814533_78691.JPEG
alexnet,3,294,NaN,truck,car,c50,2854_con_dnn_c50_car_10_n04285008_7154.JPEG
alexnet,3,295,NaN,truck,car,c50,2855_con_dnn_c50_car_10_n04285008_11870.JPEG
alexnet,3,296,NaN,truck,car,c50,2856_con_dnn_c50_car_10_n03100240_1989.JPEG
alexnet,3,297,NaN,car,car,c50,2857_con_dnn_c50_car_10_n02814533_4687.JPEG
alexnet,3,298,NaN,car,car,c50,2858_con_dnn_c50_car_10_n02814533_9634.JPEG
alexnet,3,299,NaN,car,car,c50,2859_con_dnn_c50_car_10_n02814533_43509.JPEG
alexnet,3,300,NaN,car,car,c50,2860_con_dnn_c50_car_10_n03100240_14740.JPEG
alexnet,3,301,NaN,bird,bird,c50,2861_con_dnn_c50_bird_10_n02007558_10610.JPEG
alexnet,3,302,NaN,cat,bird,c50,2862_con_dnn_c50_bird_10_n02007558_12974.JPEG
alexnet,3,303,NaN,elephant,bird,c50,2863_con_dnn_c50_bird_10_n01795545_16232.JPEG
alexnet,3,304,NaN,bird,bird,c50,2864_con_dnn_c50_bird_10_n02056570_7495.JPEG
alexnet,3,305,NaN,bird,bird,c50,2865_con_dnn_c50_bird_10_n01797886_1396.JPEG
alexnet,3,306,NaN,bird,bird,c50,2866_con_dnn_c50_bird_10_n02007558_3792.JPEG
alexnet,3,307,NaN,bird,bird,c50,2867_con_dnn_c50_bird_10_n01796340_4873.JPEG
alexnet,3,308,NaN,bird,bird,c50,2868_con_dnn_c50_bird_10_n01558993_4054.JPEG
alexnet,3,309,NaN,bird,bird,c50,2869_con_dnn_c50_bird_10_n02033041_1718.JPEG
alexnet,3,310,NaN,bird,bird,c50,2870_con_dnn_c50_bird_10_n02033041_16258.JPEG
alexnet,3,311,NaN,dog,dog,c50,2871_con_dnn_c50_dog_10_n02107908_1448.JPEG
alexnet,3,312,NaN,dog,dog,c50,2872_con_dnn_c50_dog_10_n02093754_5270.JPEG
alexnet,3,313,NaN,dog,dog,c50,2873_con_dnn_c50_dog_10_n02086646_3827.JPEG
alexnet,3,314,NaN,dog,dog,c50,2874_con_dnn_c50_dog_10_n02113799_9137.JPEG
alexnet,3,315,NaN,dog,dog,c50,2875_con_dnn_c50_dog_10_n02089867_8118.JPEG
alexnet,3,316,NaN,dog,dog,c50,2876_con_dnn_c50_dog_10_n02096585_9480.JPEG
alexnet,3,317,NaN,dog,dog,c50,2877_con_dnn_c50_dog_10_n02111129_4048.JPEG
alexnet,3,318,NaN,dog,dog,c50,2878_con_dnn_c50_dog_10_n02088238_8708.JPEG
alexnet,3,319,NaN,dog,dog,c50,2879_con_dnn_c50_dog_10_n02112018_6429.JPEG
alexnet,3,320,NaN,dog,dog,c50,2880_con_dnn_c50_dog_10_n02091831_4635.JPEG
alexnet,3,321,NaN,dog,knife,c30,2881_con_dnn_c30_knife_10_n03041632_18126.JPEG
alexnet,3,322,NaN,knife,knife,c30,2882_con_dnn_c30_knife_10_n03041632_81471.JPEG
alexnet,3,323,NaN,dog,knife,c30,2883_con_dnn_c30_knife_10_n03041632_13108.JPEG
alexnet,3,324,NaN,bottle,knife,c30,2884_con_dnn_c30_knife_10_n03041632_1607.JPEG
alexnet,3,325,NaN,clock,knife,c30,2885_con_dnn_c30_knife_10_n03041632_32337.JPEG
alexnet,3,326,NaN,keyboard,knife,c30,2886_con_dnn_c30_knife_10_n03041632_13742.JPEG
alexnet,3,327,NaN,knife,knife,c30,2887_con_dnn_c30_knife_10_n03041632_43289.JPEG
alexnet,3,328,NaN,knife,knife,c30,2888_con_dnn_c30_knife_10_n03041632_11797.JPEG
alexnet,3,329,NaN,knife,knife,c30,2889_con_dnn_c30_knife_10_n03041632_22472.JPEG
alexnet,3,330,NaN,chair,knife,c30,2890_con_dnn_c30_knife_10_n03041632_30565.JPEG
alexnet,3,331,NaN,bottle,keyboard,c30,2891_con_dnn_c30_keyboard_10_n03085013_31250.JPEG
alexnet,3,332,NaN,keyboard,keyboard,c30,2892_con_dnn_c30_keyboard_10_n03085013_22713.JPEG
alexnet,3,333,NaN,keyboard,keyboard,c30,2893_con_dnn_c30_keyboard_10_n03085013_23986.JPEG
alexnet,3,334,NaN,keyboard,keyboard,c30,2894_con_dnn_c30_keyboard_10_n03085013_24309.JPEG
alexnet,3,335,NaN,keyboard,keyboard,c30,2895_con_dnn_c30_keyboard_10_n04505470_4016.JPEG
alexnet,3,336,NaN,bottle,keyboard,c30,2896_con_dnn_c30_keyboard_10_n04505470_10859.JPEG
alexnet,3,337,NaN,keyboard,keyboard,c30,2897_con_dnn_c30_keyboard_10_n03085013_2092.JPEG
alexnet,3,338,NaN,keyboard,keyboard,c30,2898_con_dnn_c30_keyboard_10_n03085013_6432.JPEG
alexnet,3,339,NaN,keyboard,keyboard,c30,2899_con_dnn_c30_keyboard_10_n03085013_24668.JPEG
alexnet,3,340,NaN,keyboard,keyboard,c30,2900_con_dnn_c30_keyboard_10_n03085013_2277.JPEG
alexnet,3,341,NaN,elephant,elephant,c30,2901_con_dnn_c30_elephant_10_n02504013_4846.JPEG
alexnet,3,342,NaN,elephant,elephant,c30,2902_con_dnn_c30_elephant_10_n02504013_3258.JPEG
alexnet,3,343,NaN,dog,elephant,c30,2903_con_dnn_c30_elephant_10_n02504013_9401.JPEG
alexnet,3,344,NaN,dog,elephant,c30,2904_con_dnn_c30_elephant_10_n02504013_21542.JPEG
alexnet,3,345,NaN,elephant,elephant,c30,2905_con_dnn_c30_elephant_10_n02504458_1464.JPEG
alexnet,3,346,NaN,dog,elephant,c30,2906_con_dnn_c30_elephant_10_n02504013_4674.JPEG
alexnet,3,347,NaN,elephant,elephant,c30,2907_con_dnn_c30_elephant_10_n02504013_4444.JPEG
alexnet,3,348,NaN,elephant,elephant,c30,2908_con_dnn_c30_elephant_10_n02504458_7845.JPEG
alexnet,3,349,NaN,bear,elephant,c30,2909_con_dnn_c30_elephant_10_n02504013_7147.JPEG
alexnet,3,350,NaN,elephant,elephant,c30,2910_con_dnn_c30_elephant_10_n02504458_2339.JPEG
alexnet,3,351,NaN,bicycle,bicycle,c30,2911_con_dnn_c30_bicycle_10_n02835271_759.JPEG
alexnet,3,352,NaN,bicycle,bicycle,c30,2912_con_dnn_c30_bicycle_10_n03792782_15189.JPEG
alexnet,3,353,NaN,chair,bicycle,c30,2913_con_dnn_c30_bicycle_10_n03792782_19744.JPEG
alexnet,3,354,NaN,bicycle,bicycle,c30,2914_con_dnn_c30_bicycle_10_n02835271_14316.JPEG
alexnet,3,355,NaN,dog,bicycle,c30,2915_con_dnn_c30_bicycle_10_n02835271_5956.JPEG
alexnet,3,356,NaN,bottle,bicycle,c30,2916_con_dnn_c30_bicycle_10_n02835271_7259.JPEG
alexnet,3,357,NaN,bicycle,bicycle,c30,2917_con_dnn_c30_bicycle_10_n02835271_1016.JPEG
alexnet,3,358,NaN,chair,bicycle,c30,2918_con_dnn_c30_bicycle_10_n03792782_13002.JPEG
alexnet,3,359,NaN,bicycle,bicycle,c30,2919_con_dnn_c30_bicycle_10_n02835271_7096.JPEG
alexnet,3,360,NaN,bicycle,bicycle,c30,2920_con_dnn_c30_bicycle_10_n02835271_8408.JPEG
alexnet,3,361,NaN,truck,airplane,c30,2921_con_dnn_c30_airplane_10_n02690373_7686.JPEG
alexnet,3,362,NaN,airplane,airplane,c30,2922_con_dnn_c30_airplane_10_n02690373_21922.JPEG
alexnet,3,363,NaN,airplane,airplane,c30,2923_con_dnn_c30_airplane_10_n02690373_939.JPEG
alexnet,3,364,NaN,airplane,airplane,c30,2924_con_dnn_c30_airplane_10_n02690373_1434.JPEG
alexnet,3,365,NaN,airplane,airplane,c30,2925_con_dnn_c30_airplane_10_n02690373_4055.JPEG
alexnet,3,366,NaN,airplane,airplane,c30,2926_con_dnn_c30_airplane_10_n02690373_6614.JPEG
alexnet,3,367,NaN,airplane,airplane,c30,2927_con_dnn_c30_airplane_10_n02690373_8382.JPEG
alexnet,3,368,NaN,airplane,airplane,c30,2928_con_dnn_c30_airplane_10_n02690373_4233.JPEG
alexnet,3,369,NaN,airplane,airplane,c30,2929_con_dnn_c30_airplane_10_n02690373_6988.JPEG
alexnet,3,370,NaN,airplane,airplane,c30,2930_con_dnn_c30_airplane_10_n02690373_5204.JPEG
alexnet,3,371,NaN,clock,clock,c30,2931_con_dnn_c30_clock_10_n02708093_3841.JPEG
alexnet,3,372,NaN,bottle,clock,c30,2932_con_dnn_c30_clock_10_n04548280_3038.JPEG
alexnet,3,373,NaN,clock,clock,c30,2933_con_dnn_c30_clock_10_n03196217_8618.JPEG
alexnet,3,374,NaN,clock,clock,c30,2934_con_dnn_c30_clock_10_n04548280_7370.JPEG
alexnet,3,375,NaN,clock,clock,c30,2935_con_dnn_c30_clock_10_n03196217_1047.JPEG
alexnet,3,376,NaN,clock,clock,c30,2936_con_dnn_c30_clock_10_n04548280_7944.JPEG
alexnet,3,377,NaN,clock,clock,c30,2937_con_dnn_c30_clock_10_n04548280_3331.JPEG
alexnet,3,378,NaN,clock,clock,c30,2938_con_dnn_c30_clock_10_n03196217_66.JPEG
alexnet,3,379,NaN,chair,clock,c30,2939_con_dnn_c30_clock_10_n02708093_1775.JPEG
alexnet,3,380,NaN,clock,clock,c30,2940_con_dnn_c30_clock_10_n03196217_1908.JPEG
alexnet,3,381,NaN,knife,oven,c30,2941_con_dnn_c30_oven_10_n04111531_22120.JPEG
alexnet,3,382,NaN,chair,oven,c30,2942_con_dnn_c30_oven_10_n04111531_16251.JPEG
alexnet,3,383,NaN,bottle,oven,c30,2943_con_dnn_c30_oven_10_n04111531_13797.JPEG
alexnet,3,384,NaN,dog,oven,c30,2944_con_dnn_c30_oven_10_n04111531_4585.JPEG
alexnet,3,385,NaN,airplane,oven,c30,2945_con_dnn_c30_oven_10_n04111531_6084.JPEG
alexnet,3,386,NaN,chair,oven,c30,2946_con_dnn_c30_oven_10_n04111531_8688.JPEG
alexnet,3,387,NaN,chair,oven,c30,2947_con_dnn_c30_oven_10_n04111531_49.JPEG
alexnet,3,388,NaN,bear,oven,c30,2948_con_dnn_c30_oven_10_n04111531_4785.JPEG
alexnet,3,389,NaN,oven,oven,c30,2949_con_dnn_c30_oven_10_n04111531_15489.JPEG
alexnet,3,390,NaN,bottle,oven,c30,2950_con_dnn_c30_oven_10_n04111531_2575.JPEG
alexnet,3,391,NaN,chair,chair,c30,2951_con_dnn_c30_chair_10_n02791124_3819.JPEG
alexnet,3,392,NaN,chair,chair,c30,2952_con_dnn_c30_chair_10_n04099969_5598.JPEG
alexnet,3,393,NaN,chair,chair,c30,2953_con_dnn_c30_chair_10_n03376595_9656.JPEG
alexnet,3,394,NaN,bottle,chair,c30,2954_con_dnn_c30_chair_10_n04429376_8902.JPEG
alexnet,3,395,NaN,chair,chair,c30,2955_con_dnn_c30_chair_10_n04429376_10546.JPEG
alexnet,3,396,NaN,bottle,chair,c30,2956_con_dnn_c30_chair_10_n03376595_9237.JPEG
alexnet,3,397,NaN,chair,chair,c30,2957_con_dnn_c30_chair_10_n04099969_20267.JPEG
alexnet,3,398,NaN,chair,chair,c30,2958_con_dnn_c30_chair_10_n02791124_1088.JPEG
alexnet,3,399,NaN,clock,chair,c30,2959_con_dnn_c30_chair_10_n03376595_14794.JPEG
alexnet,3,400,NaN,chair,chair,c30,2960_con_dnn_c30_chair_10_n03376595_3069.JPEG
alexnet,3,401,NaN,bird,bear,c30,2961_con_dnn_c30_bear_10_n02134084_1694.JPEG
alexnet,3,402,NaN,dog,bear,c30,2962_con_dnn_c30_bear_10_n02132136_7586.JPEG
alexnet,3,403,NaN,cat,bear,c30,2963_con_dnn_c30_bear_10_n02134084_21718.JPEG
alexnet,3,404,NaN,elephant,bear,c30,2964_con_dnn_c30_bear_10_n02134418_5251.JPEG
alexnet,3,405,NaN,bear,bear,c30,2965_con_dnn_c30_bear_10_n02134418_163.JPEG
alexnet,3,406,NaN,cat,bear,c30,2966_con_dnn_c30_bear_10_n02133161_11313.JPEG
alexnet,3,407,NaN,elephant,bear,c30,2967_con_dnn_c30_bear_10_n02132136_4179.JPEG
alexnet,3,408,NaN,bear,bear,c30,2968_con_dnn_c30_bear_10_n02133161_8648.JPEG
alexnet,3,409,NaN,bear,bear,c30,2969_con_dnn_c30_bear_10_n02134418_644.JPEG
alexnet,3,410,NaN,bear,bear,c30,2970_con_dnn_c30_bear_10_n02132136_5346.JPEG
alexnet,3,411,NaN,boat,boat,c30,2971_con_dnn_c30_boat_10_n04612504_3041.JPEG
alexnet,3,412,NaN,boat,boat,c30,2972_con_dnn_c30_boat_10_n04273569_4327.JPEG
alexnet,3,413,NaN,boat,boat,c30,2973_con_dnn_c30_boat_10_n03344393_3754.JPEG
alexnet,3,414,NaN,boat,boat,c30,2974_con_dnn_c30_boat_10_n04612504_13783.JPEG
alexnet,3,415,NaN,car,boat,c30,2975_con_dnn_c30_boat_10_n02951358_129.JPEG
alexnet,3,416,NaN,boat,boat,c30,2976_con_dnn_c30_boat_10_n03662601_34353.JPEG
alexnet,3,417,NaN,boat,boat,c30,2977_con_dnn_c30_boat_10_n03344393_5371.JPEG
alexnet,3,418,NaN,boat,boat,c30,2978_con_dnn_c30_boat_10_n04273569_33955.JPEG
alexnet,3,419,NaN,boat,boat,c30,2979_con_dnn_c30_boat_10_n02951358_33580.JPEG
alexnet,3,420,NaN,boat,boat,c30,2980_con_dnn_c30_boat_10_n03662601_1566.JPEG
alexnet,3,421,NaN,cat,cat,c30,2981_con_dnn_c30_cat_10_n02124075_3333.JPEG
alexnet,3,422,NaN,clock,cat,c30,2982_con_dnn_c30_cat_10_n02123394_7471.JPEG
alexnet,3,423,NaN,cat,cat,c30,2983_con_dnn_c30_cat_10_n02125311_1721.JPEG
alexnet,3,424,NaN,cat,cat,c30,2984_con_dnn_c30_cat_10_n02123597_4932.JPEG
alexnet,3,425,NaN,cat,cat,c30,2985_con_dnn_c30_cat_10_n02123394_4151.JPEG
alexnet,3,426,NaN,cat,cat,c30,2986_con_dnn_c30_cat_10_n02124075_8866.JPEG
alexnet,3,427,NaN,cat,cat,c30,2987_con_dnn_c30_cat_10_n02125311_11098.JPEG
alexnet,3,428,NaN,cat,cat,c30,2988_con_dnn_c30_cat_10_n02124075_13623.JPEG
alexnet,3,429,NaN,bottle,cat,c30,2989_con_dnn_c30_cat_10_n02123394_1980.JPEG
alexnet,3,430,NaN,cat,cat,c30,2990_con_dnn_c30_cat_10_n02124075_11601.JPEG
alexnet,3,431,NaN,bottle,bottle,c30,2991_con_dnn_c30_bottle_10_n03937543_2940.JPEG
alexnet,3,432,NaN,bottle,bottle,c30,2992_con_dnn_c30_bottle_10_n04557648_9483.JPEG
alexnet,3,433,NaN,bottle,bottle,c30,2993_con_dnn_c30_bottle_10_n02823428_7281.JPEG
alexnet,3,434,NaN,bottle,bottle,c30,2994_con_dnn_c30_bottle_10_n03983396_10181.JPEG
alexnet,3,435,NaN,bottle,bottle,c30,2995_con_dnn_c30_bottle_10_n03937543_4810.JPEG
alexnet,3,436,NaN,bottle,bottle,c30,2996_con_dnn_c30_bottle_10_n04560804_9365.JPEG
alexnet,3,437,NaN,bottle,bottle,c30,2997_con_dnn_c30_bottle_10_n03983396_4583.JPEG
alexnet,3,438,NaN,bottle,bottle,c30,2998_con_dnn_c30_bottle_10_n04557648_5690.JPEG
alexnet,3,439,NaN,bottle,bottle,c30,2999_con_dnn_c30_bottle_10_n02823428_13649.JPEG
alexnet,3,440,NaN,bottle,bottle,c30,3000_con_dnn_c30_bottle_10_n04557648_7287.JPEG
alexnet,3,441,NaN,truck,truck,c30,3001_con_dnn_c30_truck_10_n03796401_3695.JPEG
alexnet,3,442,NaN,truck,truck,c30,3002_con_dnn_c30_truck_10_n03796401_4119.JPEG
alexnet,3,443,NaN,truck,truck,c30,3003_con_dnn_c30_truck_10_n03417042_17911.JPEG
alexnet,3,444,NaN,truck,truck,c30,3004_con_dnn_c30_truck_10_n04467665_68332.JPEG
alexnet,3,445,NaN,truck,truck,c30,3005_con_dnn_c30_truck_10_n03417042_6893.JPEG
alexnet,3,446,NaN,truck,truck,c30,3006_con_dnn_c30_truck_10_n03417042_1668.JPEG
alexnet,3,447,NaN,truck,truck,c30,3007_con_dnn_c30_truck_10_n04467665_70122.JPEG
alexnet,3,448,NaN,truck,truck,c30,3008_con_dnn_c30_truck_10_n03417042_2150.JPEG
alexnet,3,449,NaN,truck,truck,c30,3009_con_dnn_c30_truck_10_n04467665_40002.JPEG
alexnet,3,450,NaN,truck,truck,c30,3010_con_dnn_c30_truck_10_n03417042_13871.JPEG
alexnet,3,451,NaN,truck,car,c30,3011_con_dnn_c30_car_10_n04285008_5400.JPEG
alexnet,3,452,NaN,truck,car,c30,3012_con_dnn_c30_car_10_n03100240_9626.JPEG
alexnet,3,453,NaN,clock,car,c30,3013_con_dnn_c30_car_10_n03100240_5308.JPEG
alexnet,3,454,NaN,car,car,c30,3014_con_dnn_c30_car_10_n03100240_8465.JPEG
alexnet,3,455,NaN,car,car,c30,3015_con_dnn_c30_car_10_n02814533_26369.JPEG
alexnet,3,456,NaN,clock,car,c30,3016_con_dnn_c30_car_10_n02814533_5085.JPEG
alexnet,3,457,NaN,truck,car,c30,3017_con_dnn_c30_car_10_n04285008_3759.JPEG
alexnet,3,458,NaN,car,car,c30,3018_con_dnn_c30_car_10_n03100240_15686.JPEG
alexnet,3,459,NaN,car,car,c30,3019_con_dnn_c30_car_10_n04285008_5924.JPEG
alexnet,3,460,NaN,truck,car,c30,3020_con_dnn_c30_car_10_n03100240_11427.JPEG
alexnet,3,461,NaN,bird,bird,c30,3021_con_dnn_c30_bird_10_n01531178_10828.JPEG
alexnet,3,462,NaN,bottle,bird,c30,3022_con_dnn_c30_bird_10_n02025239_7145.JPEG
alexnet,3,463,NaN,bird,bird,c30,3023_con_dnn_c30_bird_10_n01797886_17135.JPEG
alexnet,3,464,NaN,bird,bird,c30,3024_con_dnn_c30_bird_10_n01614925_3608.JPEG
alexnet,3,465,NaN,bird,bird,c30,3025_con_dnn_c30_bird_10_n01514859_28584.JPEG
alexnet,3,466,NaN,bird,bird,c30,3026_con_dnn_c30_bird_10_n02033041_16938.JPEG
alexnet,3,467,NaN,bird,bird,c30,3027_con_dnn_c30_bird_10_n01622779_9257.JPEG
alexnet,3,468,NaN,bird,bird,c30,3028_con_dnn_c30_bird_10_n01601694_20236.JPEG
alexnet,3,469,NaN,bottle,bird,c30,3029_con_dnn_c30_bird_10_n01855032_6055.JPEG
alexnet,3,470,NaN,bird,bird,c30,3030_con_dnn_c30_bird_10_n02018795_9666.JPEG
alexnet,3,471,NaN,dog,dog,c30,3031_con_dnn_c30_dog_10_n02089078_3914.JPEG
alexnet,3,472,NaN,dog,dog,c30,3032_con_dnn_c30_dog_10_n02106550_9867.JPEG
alexnet,3,473,NaN,dog,dog,c30,3033_con_dnn_c30_dog_10_n02111500_5296.JPEG
alexnet,3,474,NaN,cat,dog,c30,3034_con_dnn_c30_dog_10_n02106030_14892.JPEG
alexnet,3,475,NaN,dog,dog,c30,3035_con_dnn_c30_dog_10_n02086910_2647.JPEG
alexnet,3,476,NaN,bottle,dog,c30,3036_con_dnn_c30_dog_10_n02089867_8113.JPEG
alexnet,3,477,NaN,dog,dog,c30,3037_con_dnn_c30_dog_10_n02097298_3641.JPEG
alexnet,3,478,NaN,dog,dog,c30,3038_con_dnn_c30_dog_10_n02102973_6261.JPEG
alexnet,3,479,NaN,dog,dog,c30,3039_con_dnn_c30_dog_10_n02100583_21104.JPEG
alexnet,3,480,NaN,dog,dog,c30,3040_con_dnn_c30_dog_10_n02097047_4147.JPEG
alexnet,3,481,NaN,bird,knife,c15,3041_con_dnn_c15_knife_10_n03041632_90407.JPEG
alexnet,3,482,NaN,airplane,knife,c15,3042_con_dnn_c15_knife_10_n03041632_5916.JPEG
alexnet,3,483,NaN,dog,knife,c15,3043_con_dnn_c15_knife_10_n03041632_24060.JPEG
alexnet,3,484,NaN,knife,knife,c15,3044_con_dnn_c15_knife_10_n03041632_20413.JPEG
alexnet,3,485,NaN,bear,knife,c15,3045_con_dnn_c15_knife_10_n03041632_11887.JPEG
alexnet,3,486,NaN,boat,knife,c15,3046_con_dnn_c15_knife_10_n03041632_84240.JPEG
alexnet,3,487,NaN,bottle,knife,c15,3047_con_dnn_c15_knife_10_n03041632_52929.JPEG
alexnet,3,488,NaN,chair,knife,c15,3048_con_dnn_c15_knife_10_n03041632_85488.JPEG
alexnet,3,489,NaN,knife,knife,c15,3049_con_dnn_c15_knife_10_n03041632_7116.JPEG
alexnet,3,490,NaN,bottle,knife,c15,3050_con_dnn_c15_knife_10_n03041632_79317.JPEG
alexnet,3,491,NaN,keyboard,keyboard,c15,3051_con_dnn_c15_keyboard_10_n03085013_15175.JPEG
alexnet,3,492,NaN,bottle,keyboard,c15,3052_con_dnn_c15_keyboard_10_n03085013_24275.JPEG
alexnet,3,493,NaN,cat,keyboard,c15,3053_con_dnn_c15_keyboard_10_n04505470_3433.JPEG
alexnet,3,494,NaN,dog,keyboard,c15,3054_con_dnn_c15_keyboard_10_n03085013_23119.JPEG
alexnet,3,495,NaN,keyboard,keyboard,c15,3055_con_dnn_c15_keyboard_10_n03085013_15825.JPEG
alexnet,3,496,NaN,clock,keyboard,c15,3056_con_dnn_c15_keyboard_10_n04505470_725.JPEG
alexnet,3,497,NaN,keyboard,keyboard,c15,3057_con_dnn_c15_keyboard_10_n04505470_147.JPEG
alexnet,3,498,NaN,chair,keyboard,c15,3058_con_dnn_c15_keyboard_10_n03085013_19687.JPEG
alexnet,3,499,NaN,keyboard,keyboard,c15,3059_con_dnn_c15_keyboard_10_n03085013_23173.JPEG
alexnet,3,500,NaN,clock,keyboard,c15,3060_con_dnn_c15_keyboard_10_n03085013_20779.JPEG
alexnet,3,501,NaN,bottle,elephant,c15,3061_con_dnn_c15_elephant_10_n02504458_4747.JPEG
alexnet,3,502,NaN,chair,elephant,c15,3062_con_dnn_c15_elephant_10_n02504013_19831.JPEG
alexnet,3,503,NaN,elephant,elephant,c15,3063_con_dnn_c15_elephant_10_n02504013_3083.JPEG
alexnet,3,504,NaN,bear,elephant,c15,3064_con_dnn_c15_elephant_10_n02504013_3232.JPEG
alexnet,3,505,NaN,elephant,elephant,c15,3065_con_dnn_c15_elephant_10_n02504458_2056.JPEG
alexnet,3,506,NaN,bottle,elephant,c15,3066_con_dnn_c15_elephant_10_n02504458_5619.JPEG
alexnet,3,507,NaN,bear,elephant,c15,3067_con_dnn_c15_elephant_10_n02504458_5290.JPEG
alexnet,3,508,NaN,dog,elephant,c15,3068_con_dnn_c15_elephant_10_n02504013_8378.JPEG
alexnet,3,509,NaN,elephant,elephant,c15,3069_con_dnn_c15_elephant_10_n02504458_12234.JPEG
alexnet,3,510,NaN,bear,elephant,c15,3070_con_dnn_c15_elephant_10_n02504458_3063.JPEG
alexnet,3,511,NaN,bottle,bicycle,c15,3071_con_dnn_c15_bicycle_10_n03792782_1728.JPEG
alexnet,3,512,NaN,bear,bicycle,c15,3072_con_dnn_c15_bicycle_10_n03792782_4067.JPEG
alexnet,3,513,NaN,bicycle,bicycle,c15,3073_con_dnn_c15_bicycle_10_n02835271_19907.JPEG
alexnet,3,514,NaN,dog,bicycle,c15,3074_con_dnn_c15_bicycle_10_n02835271_5280.JPEG
alexnet,3,515,NaN,bottle,bicycle,c15,3075_con_dnn_c15_bicycle_10_n02835271_6481.JPEG
alexnet,3,516,NaN,bottle,bicycle,c15,3076_con_dnn_c15_bicycle_10_n02835271_9362.JPEG
alexnet,3,517,NaN,bicycle,bicycle,c15,3077_con_dnn_c15_bicycle_10_n03792782_4090.JPEG
alexnet,3,518,NaN,bottle,bicycle,c15,3078_con_dnn_c15_bicycle_10_n03792782_19053.JPEG
alexnet,3,519,NaN,chair,bicycle,c15,3079_con_dnn_c15_bicycle_10_n02835271_974.JPEG
alexnet,3,520,NaN,bottle,bicycle,c15,3080_con_dnn_c15_bicycle_10_n02835271_10813.JPEG
alexnet,3,521,NaN,bird,airplane,c15,3081_con_dnn_c15_airplane_10_n02690373_19646.JPEG
alexnet,3,522,NaN,airplane,airplane,c15,3082_con_dnn_c15_airplane_10_n02690373_7276.JPEG
alexnet,3,523,NaN,airplane,airplane,c15,3083_con_dnn_c15_airplane_10_n02690373_7651.JPEG
alexnet,3,524,NaN,airplane,airplane,c15,3084_con_dnn_c15_airplane_10_n02690373_5465.JPEG
alexnet,3,525,NaN,airplane,airplane,c15,3085_con_dnn_c15_airplane_10_n02690373_19152.JPEG
alexnet,3,526,NaN,knife,airplane,c15,3086_con_dnn_c15_airplane_10_n02690373_6655.JPEG
alexnet,3,527,NaN,airplane,airplane,c15,3087_con_dnn_c15_airplane_10_n02690373_10481.JPEG
alexnet,3,528,NaN,airplane,airplane,c15,3088_con_dnn_c15_airplane_10_n02690373_2584.JPEG
alexnet,3,529,NaN,airplane,airplane,c15,3089_con_dnn_c15_airplane_10_n02690373_17722.JPEG
alexnet,3,530,NaN,airplane,airplane,c15,3090_con_dnn_c15_airplane_10_n02690373_3859.JPEG
alexnet,3,531,NaN,clock,clock,c15,3091_con_dnn_c15_clock_10_n04548280_3305.JPEG
alexnet,3,532,NaN,clock,clock,c15,3092_con_dnn_c15_clock_10_n03196217_6289.JPEG
alexnet,3,533,NaN,clock,clock,c15,3093_con_dnn_c15_clock_10_n02708093_7941.JPEG
alexnet,3,534,NaN,boat,clock,c15,3094_con_dnn_c15_clock_10_n04548280_8942.JPEG
alexnet,3,535,NaN,clock,clock,c15,3095_con_dnn_c15_clock_10_n02708093_5577.JPEG
alexnet,3,536,NaN,dog,clock,c15,3096_con_dnn_c15_clock_10_n04548280_9340.JPEG
alexnet,3,537,NaN,bottle,clock,c15,3097_con_dnn_c15_clock_10_n04548280_8841.JPEG
alexnet,3,538,NaN,clock,clock,c15,3098_con_dnn_c15_clock_10_n03196217_5365.JPEG
alexnet,3,539,NaN,bottle,clock,c15,3099_con_dnn_c15_clock_10_n04548280_3299.JPEG
alexnet,3,540,NaN,truck,clock,c15,3100_con_dnn_c15_clock_10_n04548280_8348.JPEG
alexnet,3,541,NaN,oven,oven,c15,3101_con_dnn_c15_oven_10_n04111531_4562.JPEG
alexnet,3,542,NaN,bottle,oven,c15,3102_con_dnn_c15_oven_10_n04111531_15912.JPEG
alexnet,3,543,NaN,bottle,oven,c15,3103_con_dnn_c15_oven_10_n04111531_643.JPEG
alexnet,3,544,NaN,bottle,oven,c15,3104_con_dnn_c15_oven_10_n04111531_9424.JPEG
alexnet,3,545,NaN,clock,oven,c15,3105_con_dnn_c15_oven_10_n04111531_23046.JPEG
alexnet,3,546,NaN,oven,oven,c15,3106_con_dnn_c15_oven_10_n04111531_8852.JPEG
alexnet,3,547,NaN,bird,oven,c15,3107_con_dnn_c15_oven_10_n04111531_12769.JPEG
alexnet,3,548,NaN,dog,oven,c15,3108_con_dnn_c15_oven_10_n04111531_627.JPEG
alexnet,3,549,NaN,bottle,oven,c15,3109_con_dnn_c15_oven_10_n04111531_8009.JPEG
alexnet,3,550,NaN,bottle,oven,c15,3110_con_dnn_c15_oven_10_n04111531_9314.JPEG
alexnet,3,551,NaN,bottle,chair,c15,3111_con_dnn_c15_chair_10_n03376595_15607.JPEG
alexnet,3,552,NaN,chair,chair,c15,3112_con_dnn_c15_chair_10_n04099969_6691.JPEG
alexnet,3,553,NaN,chair,chair,c15,3113_con_dnn_c15_chair_10_n03376595_11049.JPEG
alexnet,3,554,NaN,chair,chair,c15,3114_con_dnn_c15_chair_10_n03376595_14143.JPEG
alexnet,3,555,NaN,bottle,chair,c15,3115_con_dnn_c15_chair_10_n02791124_186.JPEG
alexnet,3,556,NaN,bottle,chair,c15,3116_con_dnn_c15_chair_10_n02791124_1935.JPEG
alexnet,3,557,NaN,chair,chair,c15,3117_con_dnn_c15_chair_10_n04099969_15060.JPEG
alexnet,3,558,NaN,bottle,chair,c15,3118_con_dnn_c15_chair_10_n02791124_7935.JPEG
alexnet,3,559,NaN,chair,chair,c15,3119_con_dnn_c15_chair_10_n04099969_1823.JPEG
alexnet,3,560,NaN,bottle,chair,c15,3120_con_dnn_c15_chair_10_n03376595_381.JPEG
alexnet,3,561,NaN,dog,bear,c15,3121_con_dnn_c15_bear_10_n02134084_16618.JPEG
alexnet,3,562,NaN,bear,bear,c15,3122_con_dnn_c15_bear_10_n02133161_8236.JPEG
alexnet,3,563,NaN,bear,bear,c15,3123_con_dnn_c15_bear_10_n02133161_6457.JPEG
alexnet,3,564,NaN,bear,bear,c15,3124_con_dnn_c15_bear_10_n02134084_5822.JPEG
alexnet,3,565,NaN,bear,bear,c15,3125_con_dnn_c15_bear_10_n02132136_6387.JPEG
alexnet,3,566,NaN,dog,bear,c15,3126_con_dnn_c15_bear_10_n02134084_7371.JPEG
alexnet,3,567,NaN,dog,bear,c15,3127_con_dnn_c15_bear_10_n02134418_132.JPEG
alexnet,3,568,NaN,bear,bear,c15,3128_con_dnn_c15_bear_10_n02134418_1575.JPEG
alexnet,3,569,NaN,bear,bear,c15,3129_con_dnn_c15_bear_10_n02134084_12180.JPEG
alexnet,3,570,NaN,bear,bear,c15,3130_con_dnn_c15_bear_10_n02134084_659.JPEG
alexnet,3,571,NaN,boat,boat,c15,3131_con_dnn_c15_boat_10_n03344393_2739.JPEG
alexnet,3,572,NaN,clock,boat,c15,3132_con_dnn_c15_boat_10_n04612504_13184.JPEG
alexnet,3,573,NaN,boat,boat,c15,3133_con_dnn_c15_boat_10_n02951358_12402.JPEG
alexnet,3,574,NaN,boat,boat,c15,3134_con_dnn_c15_boat_10_n03662601_33880.JPEG
alexnet,3,575,NaN,clock,boat,c15,3135_con_dnn_c15_boat_10_n04273569_14265.JPEG
alexnet,3,576,NaN,boat,boat,c15,3136_con_dnn_c15_boat_10_n03662601_10413.JPEG
alexnet,3,577,NaN,boat,boat,c15,3137_con_dnn_c15_boat_10_n03662601_6865.JPEG
alexnet,3,578,NaN,boat,boat,c15,3138_con_dnn_c15_boat_10_n04612504_239.JPEG
alexnet,3,579,NaN,boat,boat,c15,3139_con_dnn_c15_boat_10_n04612504_4744.JPEG
alexnet,3,580,NaN,boat,boat,c15,3140_con_dnn_c15_boat_10_n03344393_13952.JPEG
alexnet,3,581,NaN,cat,cat,c15,3141_con_dnn_c15_cat_10_n02123159_1570.JPEG
alexnet,3,582,NaN,cat,cat,c15,3142_con_dnn_c15_cat_10_n02123159_7612.JPEG
alexnet,3,583,NaN,bottle,cat,c15,3143_con_dnn_c15_cat_10_n02123394_6031.JPEG
alexnet,3,584,NaN,cat,cat,c15,3144_con_dnn_c15_cat_10_n02123159_7554.JPEG
alexnet,3,585,NaN,bottle,cat,c15,3145_con_dnn_c15_cat_10_n02125311_47452.JPEG
alexnet,3,586,NaN,cat,cat,c15,3146_con_dnn_c15_cat_10_n02123045_5713.JPEG
alexnet,3,587,NaN,bottle,cat,c15,3147_con_dnn_c15_cat_10_n02123597_12157.JPEG
alexnet,3,588,NaN,bear,cat,c15,3148_con_dnn_c15_cat_10_n02124075_2843.JPEG
alexnet,3,589,NaN,cat,cat,c15,3149_con_dnn_c15_cat_10_n02125311_27989.JPEG
alexnet,3,590,NaN,cat,cat,c15,3150_con_dnn_c15_cat_10_n02125311_9449.JPEG
alexnet,3,591,NaN,bottle,bottle,c15,3151_con_dnn_c15_bottle_10_n03983396_7310.JPEG
alexnet,3,592,NaN,bottle,bottle,c15,3152_con_dnn_c15_bottle_10_n04560804_7358.JPEG
alexnet,3,593,NaN,bottle,bottle,c15,3153_con_dnn_c15_bottle_10_n03983396_2154.JPEG
alexnet,3,594,NaN,boat,bottle,c15,3154_con_dnn_c15_bottle_10_n04557648_2512.JPEG
alexnet,3,595,NaN,bottle,bottle,c15,3155_con_dnn_c15_bottle_10_n04560804_3438.JPEG
alexnet,3,596,NaN,bottle,bottle,c15,3156_con_dnn_c15_bottle_10_n04557648_4517.JPEG
alexnet,3,597,NaN,bottle,bottle,c15,3157_con_dnn_c15_bottle_10_n04557648_2200.JPEG
alexnet,3,598,NaN,bottle,bottle,c15,3158_con_dnn_c15_bottle_10_n04557648_844.JPEG
alexnet,3,599,NaN,bottle,bottle,c15,3159_con_dnn_c15_bottle_10_n02823428_7495.JPEG
alexnet,3,600,NaN,bottle,bottle,c15,3160_con_dnn_c15_bottle_10_n02823428_7679.JPEG
alexnet,3,601,NaN,truck,truck,c15,3161_con_dnn_c15_truck_10_n03417042_5514.JPEG
alexnet,3,602,NaN,truck,truck,c15,3162_con_dnn_c15_truck_10_n03796401_21829.JPEG
alexnet,3,603,NaN,bottle,truck,c15,3163_con_dnn_c15_truck_10_n03417042_4694.JPEG
alexnet,3,604,NaN,truck,truck,c15,3164_con_dnn_c15_truck_10_n04467665_66876.JPEG
alexnet,3,605,NaN,truck,truck,c15,3165_con_dnn_c15_truck_10_n03417042_130.JPEG
alexnet,3,606,NaN,truck,truck,c15,3166_con_dnn_c15_truck_10_n03796401_666.JPEG
alexnet,3,607,NaN,truck,truck,c15,3167_con_dnn_c15_truck_10_n03796401_27.JPEG
alexnet,3,608,NaN,truck,truck,c15,3168_con_dnn_c15_truck_10_n04467665_19574.JPEG
alexnet,3,609,NaN,truck,truck,c15,3169_con_dnn_c15_truck_10_n03796401_13280.JPEG
alexnet,3,610,NaN,truck,truck,c15,3170_con_dnn_c15_truck_10_n03417042_17142.JPEG
alexnet,3,611,NaN,bottle,car,c15,3171_con_dnn_c15_car_10_n02814533_80.JPEG
alexnet,3,612,NaN,bottle,car,c15,3172_con_dnn_c15_car_10_n04285008_10917.JPEG
alexnet,3,613,NaN,car,car,c15,3173_con_dnn_c15_car_10_n02814533_3811.JPEG
alexnet,3,614,NaN,truck,car,c15,3174_con_dnn_c15_car_10_n02814533_5147.JPEG
alexnet,3,615,NaN,airplane,car,c15,3175_con_dnn_c15_car_10_n04285008_8612.JPEG
alexnet,3,616,NaN,car,car,c15,3176_con_dnn_c15_car_10_n03100240_9640.JPEG
alexnet,3,617,NaN,car,car,c15,3177_con_dnn_c15_car_10_n02814533_13278.JPEG
alexnet,3,618,NaN,chair,car,c15,3178_con_dnn_c15_car_10_n03100240_14045.JPEG
alexnet,3,619,NaN,bottle,car,c15,3179_con_dnn_c15_car_10_n04285008_10758.JPEG
alexnet,3,620,NaN,bottle,car,c15,3180_con_dnn_c15_car_10_n04285008_1667.JPEG
alexnet,3,621,NaN,bird,bird,c15,3181_con_dnn_c15_bird_10_n02009229_3028.JPEG
alexnet,3,622,NaN,bird,bird,c15,3182_con_dnn_c15_bird_10_n01828970_652.JPEG
alexnet,3,623,NaN,bird,bird,c15,3183_con_dnn_c15_bird_10_n02051845_17261.JPEG
alexnet,3,624,NaN,bird,bird,c15,3184_con_dnn_c15_bird_10_n02009912_27440.JPEG
alexnet,3,625,NaN,bird,bird,c15,3185_con_dnn_c15_bird_10_n01855672_7030.JPEG
alexnet,3,626,NaN,bottle,bird,c15,3186_con_dnn_c15_bird_10_n01828970_16751.JPEG
alexnet,3,627,NaN,bird,bird,c15,3187_con_dnn_c15_bird_10_n01537544_3703.JPEG
alexnet,3,628,NaN,bear,bird,c15,3188_con_dnn_c15_bird_10_n02006656_879.JPEG
alexnet,3,629,NaN,elephant,bird,c15,3189_con_dnn_c15_bird_10_n02037110_3539.JPEG
alexnet,3,630,NaN,bird,bird,c15,3190_con_dnn_c15_bird_10_n01795545_14281.JPEG
alexnet,3,631,NaN,clock,dog,c15,3191_con_dnn_c15_dog_10_n02100735_6217.JPEG
alexnet,3,632,NaN,bear,dog,c15,3192_con_dnn_c15_dog_10_n02107142_33582.JPEG
alexnet,3,633,NaN,dog,dog,c15,3193_con_dnn_c15_dog_10_n02094258_1757.JPEG
alexnet,3,634,NaN,bottle,dog,c15,3194_con_dnn_c15_dog_10_n02096437_5125.JPEG
alexnet,3,635,NaN,dog,dog,c15,3195_con_dnn_c15_dog_10_n02094114_2495.JPEG
alexnet,3,636,NaN,dog,dog,c15,3196_con_dnn_c15_dog_10_n02111500_7308.JPEG
alexnet,3,637,NaN,bird,dog,c15,3197_con_dnn_c15_dog_10_n02102318_7057.JPEG
alexnet,3,638,NaN,bear,dog,c15,3198_con_dnn_c15_dog_10_n02097298_5136.JPEG
alexnet,3,639,NaN,bottle,dog,c15,3199_con_dnn_c15_dog_10_n02096585_1348.JPEG
alexnet,3,640,NaN,bird,dog,c15,3200_con_dnn_c15_dog_10_n02096051_2148.JPEG
alexnet,3,641,NaN,knife,knife,c10,3201_con_dnn_c10_knife_10_n03041632_26989.JPEG
alexnet,3,642,NaN,bear,knife,c10,3202_con_dnn_c10_knife_10_n03041632_21034.JPEG
alexnet,3,643,NaN,bottle,knife,c10,3203_con_dnn_c10_knife_10_n03041632_32350.JPEG
alexnet,3,644,NaN,bottle,knife,c10,3204_con_dnn_c10_knife_10_n03041632_42196.JPEG
alexnet,3,645,NaN,airplane,knife,c10,3205_con_dnn_c10_knife_10_n03041632_7205.JPEG
alexnet,3,646,NaN,chair,knife,c10,3206_con_dnn_c10_knife_10_n03041632_24326.JPEG
alexnet,3,647,NaN,knife,knife,c10,3207_con_dnn_c10_knife_10_n03041632_16206.JPEG
alexnet,3,648,NaN,bear,knife,c10,3208_con_dnn_c10_knife_10_n03041632_27134.JPEG
alexnet,3,649,NaN,bottle,knife,c10,3209_con_dnn_c10_knife_10_n03041632_5427.JPEG
alexnet,3,650,NaN,bird,knife,c10,3210_con_dnn_c10_knife_10_n03041632_101810.JPEG
alexnet,3,651,NaN,bird,keyboard,c10,3211_con_dnn_c10_keyboard_10_n03085013_24105.JPEG
alexnet,3,652,NaN,keyboard,keyboard,c10,3212_con_dnn_c10_keyboard_10_n04505470_2056.JPEG
alexnet,3,653,NaN,keyboard,keyboard,c10,3213_con_dnn_c10_keyboard_10_n04505470_6800.JPEG
alexnet,3,654,NaN,bottle,keyboard,c10,3214_con_dnn_c10_keyboard_10_n03085013_10366.JPEG
alexnet,3,655,NaN,keyboard,keyboard,c10,3215_con_dnn_c10_keyboard_10_n04505470_3825.JPEG
alexnet,3,656,NaN,keyboard,keyboard,c10,3216_con_dnn_c10_keyboard_10_n04505470_850.JPEG
alexnet,3,657,NaN,keyboard,keyboard,c10,3217_con_dnn_c10_keyboard_10_n03085013_21004.JPEG
alexnet,3,658,NaN,keyboard,keyboard,c10,3218_con_dnn_c10_keyboard_10_n03085013_20584.JPEG
alexnet,3,659,NaN,airplane,keyboard,c10,3219_con_dnn_c10_keyboard_10_n04505470_5006.JPEG
alexnet,3,660,NaN,bottle,keyboard,c10,3220_con_dnn_c10_keyboard_10_n03085013_10367.JPEG
alexnet,3,661,NaN,cat,elephant,c10,3221_con_dnn_c10_elephant_10_n02504458_7866.JPEG
alexnet,3,662,NaN,chair,elephant,c10,3222_con_dnn_c10_elephant_10_n02504458_13358.JPEG
alexnet,3,663,NaN,bear,elephant,c10,3223_con_dnn_c10_elephant_10_n02504013_7210.JPEG
alexnet,3,664,NaN,bear,elephant,c10,3224_con_dnn_c10_elephant_10_n02504013_2342.JPEG
alexnet,3,665,NaN,bear,elephant,c10,3225_con_dnn_c10_elephant_10_n02504013_26899.JPEG
alexnet,3,666,NaN,bottle,elephant,c10,3226_con_dnn_c10_elephant_10_n02504458_242.JPEG
alexnet,3,667,NaN,bird,elephant,c10,3227_con_dnn_c10_elephant_10_n02504458_743.JPEG
alexnet,3,668,NaN,bear,elephant,c10,3228_con_dnn_c10_elephant_10_n02504013_10346.JPEG
alexnet,3,669,NaN,bear,elephant,c10,3229_con_dnn_c10_elephant_10_n02504013_2212.JPEG
alexnet,3,670,NaN,dog,elephant,c10,3230_con_dnn_c10_elephant_10_n02504013_7001.JPEG
alexnet,3,671,NaN,bottle,bicycle,c10,3231_con_dnn_c10_bicycle_10_n02835271_7296.JPEG
alexnet,3,672,NaN,truck,bicycle,c10,3232_con_dnn_c10_bicycle_10_n03792782_4222.JPEG
alexnet,3,673,NaN,bottle,bicycle,c10,3233_con_dnn_c10_bicycle_10_n02835271_9860.JPEG
alexnet,3,674,NaN,bear,bicycle,c10,3234_con_dnn_c10_bicycle_10_n03792782_19739.JPEG
alexnet,3,675,NaN,bicycle,bicycle,c10,3235_con_dnn_c10_bicycle_10_n02835271_22549.JPEG
alexnet,3,676,NaN,chair,bicycle,c10,3236_con_dnn_c10_bicycle_10_n02835271_8322.JPEG
alexnet,3,677,NaN,bottle,bicycle,c10,3237_con_dnn_c10_bicycle_10_n03792782_3187.JPEG
alexnet,3,678,NaN,dog,bicycle,c10,3238_con_dnn_c10_bicycle_10_n03792782_50972.JPEG
alexnet,3,679,NaN,dog,bicycle,c10,3239_con_dnn_c10_bicycle_10_n02835271_12930.JPEG
alexnet,3,680,NaN,boat,bicycle,c10,3240_con_dnn_c10_bicycle_10_n03792782_7182.JPEG
alexnet,3,681,NaN,airplane,airplane,c10,3241_con_dnn_c10_airplane_10_n02690373_17731.JPEG
alexnet,3,682,NaN,airplane,airplane,c10,3242_con_dnn_c10_airplane_10_n02690373_9181.JPEG
alexnet,3,683,NaN,bird,airplane,c10,3243_con_dnn_c10_airplane_10_n02690373_4793.JPEG
alexnet,3,684,NaN,airplane,airplane,c10,3244_con_dnn_c10_airplane_10_n02690373_5624.JPEG
alexnet,3,685,NaN,bear,airplane,c10,3245_con_dnn_c10_airplane_10_n02690373_3640.JPEG
alexnet,3,686,NaN,airplane,airplane,c10,3246_con_dnn_c10_airplane_10_n02690373_6328.JPEG
alexnet,3,687,NaN,airplane,airplane,c10,3247_con_dnn_c10_airplane_10_n02690373_807.JPEG
alexnet,3,688,NaN,airplane,airplane,c10,3248_con_dnn_c10_airplane_10_n02690373_5632.JPEG
alexnet,3,689,NaN,boat,airplane,c10,3249_con_dnn_c10_airplane_10_n02690373_2128.JPEG
alexnet,3,690,NaN,bear,airplane,c10,3250_con_dnn_c10_airplane_10_n02690373_12976.JPEG
alexnet,3,691,NaN,clock,clock,c10,3251_con_dnn_c10_clock_10_n04548280_4346.JPEG
alexnet,3,692,NaN,clock,clock,c10,3252_con_dnn_c10_clock_10_n03196217_2009.JPEG
alexnet,3,693,NaN,clock,clock,c10,3253_con_dnn_c10_clock_10_n02708093_1295.JPEG
alexnet,3,694,NaN,bottle,clock,c10,3254_con_dnn_c10_clock_10_n03196217_5991.JPEG
alexnet,3,695,NaN,clock,clock,c10,3255_con_dnn_c10_clock_10_n03196217_7141.JPEG
alexnet,3,696,NaN,clock,clock,c10,3256_con_dnn_c10_clock_10_n04548280_4248.JPEG
alexnet,3,697,NaN,clock,clock,c10,3257_con_dnn_c10_clock_10_n03196217_368.JPEG
alexnet,3,698,NaN,clock,clock,c10,3258_con_dnn_c10_clock_10_n04548280_6550.JPEG
alexnet,3,699,NaN,clock,clock,c10,3259_con_dnn_c10_clock_10_n02708093_1245.JPEG
alexnet,3,700,NaN,bottle,clock,c10,3260_con_dnn_c10_clock_10_n03196217_6984.JPEG
alexnet,3,701,NaN,bear,oven,c10,3261_con_dnn_c10_oven_10_n04111531_13277.JPEG
alexnet,3,702,NaN,oven,oven,c10,3262_con_dnn_c10_oven_10_n04111531_10420.JPEG
alexnet,3,703,NaN,elephant,oven,c10,3263_con_dnn_c10_oven_10_n04111531_11993.JPEG
alexnet,3,704,NaN,boat,oven,c10,3264_con_dnn_c10_oven_10_n04111531_8553.JPEG
alexnet,3,705,NaN,bottle,oven,c10,3265_con_dnn_c10_oven_10_n04111531_686.JPEG
alexnet,3,706,NaN,bear,oven,c10,3266_con_dnn_c10_oven_10_n04111531_2662.JPEG
alexnet,3,707,NaN,bottle,oven,c10,3267_con_dnn_c10_oven_10_n04111531_313.JPEG
alexnet,3,708,NaN,chair,oven,c10,3268_con_dnn_c10_oven_10_n04111531_7252.JPEG
alexnet,3,709,NaN,bottle,oven,c10,3269_con_dnn_c10_oven_10_n04111531_3265.JPEG
alexnet,3,710,NaN,airplane,oven,c10,3270_con_dnn_c10_oven_10_n04111531_1855.JPEG
alexnet,3,711,NaN,bottle,chair,c10,3271_con_dnn_c10_chair_10_n04099969_15676.JPEG
alexnet,3,712,NaN,clock,chair,c10,3272_con_dnn_c10_chair_10_n04429376_43275.JPEG
alexnet,3,713,NaN,bottle,chair,c10,3273_con_dnn_c10_chair_10_n04099969_3711.JPEG
alexnet,3,714,NaN,chair,chair,c10,3274_con_dnn_c10_chair_10_n04099969_2267.JPEG
alexnet,3,715,NaN,airplane,chair,c10,3275_con_dnn_c10_chair_10_n03376595_2351.JPEG
alexnet,3,716,NaN,bottle,chair,c10,3276_con_dnn_c10_chair_10_n03376595_4217.JPEG
alexnet,3,717,NaN,chair,chair,c10,3277_con_dnn_c10_chair_10_n02791124_665.JPEG
alexnet,3,718,NaN,bottle,chair,c10,3278_con_dnn_c10_chair_10_n04099969_1976.JPEG
alexnet,3,719,NaN,keyboard,chair,c10,3279_con_dnn_c10_chair_10_n02791124_5995.JPEG
alexnet,3,720,NaN,chair,chair,c10,3280_con_dnn_c10_chair_10_n04099969_582.JPEG
alexnet,3,721,NaN,bird,bear,c10,3281_con_dnn_c10_bear_10_n02133161_11638.JPEG
alexnet,3,722,NaN,bottle,bear,c10,3282_con_dnn_c10_bear_10_n02133161_11551.JPEG
alexnet,3,723,NaN,bear,bear,c10,3283_con_dnn_c10_bear_10_n02134084_1410.JPEG
alexnet,3,724,NaN,bird,bear,c10,3284_con_dnn_c10_bear_10_n02133161_12243.JPEG
alexnet,3,725,NaN,boat,bear,c10,3285_con_dnn_c10_bear_10_n02133161_8614.JPEG
alexnet,3,726,NaN,bear,bear,c10,3286_con_dnn_c10_bear_10_n02134418_2279.JPEG
alexnet,3,727,NaN,bear,bear,c10,3287_con_dnn_c10_bear_10_n02134084_54.JPEG
alexnet,3,728,NaN,boat,bear,c10,3288_con_dnn_c10_bear_10_n02134084_14992.JPEG
alexnet,3,729,NaN,bottle,bear,c10,3289_con_dnn_c10_bear_10_n02134084_1528.JPEG
alexnet,3,730,NaN,bear,bear,c10,3290_con_dnn_c10_bear_10_n02132136_11050.JPEG
alexnet,3,731,NaN,bear,boat,c10,3291_con_dnn_c10_boat_10_n03662601_16925.JPEG
alexnet,3,732,NaN,chair,boat,c10,3292_con_dnn_c10_boat_10_n04273569_18945.JPEG
alexnet,3,733,NaN,airplane,boat,c10,3293_con_dnn_c10_boat_10_n04612504_31680.JPEG
alexnet,3,734,NaN,boat,boat,c10,3294_con_dnn_c10_boat_10_n03344393_251.JPEG
alexnet,3,735,NaN,boat,boat,c10,3295_con_dnn_c10_boat_10_n02951358_30908.JPEG
alexnet,3,736,NaN,boat,boat,c10,3296_con_dnn_c10_boat_10_n03662601_4665.JPEG
alexnet,3,737,NaN,bear,boat,c10,3297_con_dnn_c10_boat_10_n02951358_33817.JPEG
alexnet,3,738,NaN,airplane,boat,c10,3298_con_dnn_c10_boat_10_n03662601_9102.JPEG
alexnet,3,739,NaN,airplane,boat,c10,3299_con_dnn_c10_boat_10_n04273569_23838.JPEG
alexnet,3,740,NaN,boat,boat,c10,3300_con_dnn_c10_boat_10_n03344393_482.JPEG
alexnet,3,741,NaN,airplane,cat,c10,3301_con_dnn_c10_cat_10_n02123394_2405.JPEG
alexnet,3,742,NaN,airplane,cat,c10,3302_con_dnn_c10_cat_10_n02123394_2854.JPEG
alexnet,3,743,NaN,bottle,cat,c10,3303_con_dnn_c10_cat_10_n02124075_7872.JPEG
alexnet,3,744,NaN,dog,cat,c10,3304_con_dnn_c10_cat_10_n02123159_7934.JPEG
alexnet,3,745,NaN,bird,cat,c10,3305_con_dnn_c10_cat_10_n02123597_13627.JPEG
alexnet,3,746,NaN,bottle,cat,c10,3306_con_dnn_c10_cat_10_n02123597_2413.JPEG
alexnet,3,747,NaN,bear,cat,c10,3307_con_dnn_c10_cat_10_n02125311_55770.JPEG
alexnet,3,748,NaN,cat,cat,c10,3308_con_dnn_c10_cat_10_n02123394_7739.JPEG
alexnet,3,749,NaN,cat,cat,c10,3309_con_dnn_c10_cat_10_n02125311_15594.JPEG
alexnet,3,750,NaN,boat,cat,c10,3310_con_dnn_c10_cat_10_n02123045_2071.JPEG
alexnet,3,751,NaN,airplane,bottle,c10,3311_con_dnn_c10_bottle_10_n04560804_15332.JPEG
alexnet,3,752,NaN,bottle,bottle,c10,3312_con_dnn_c10_bottle_10_n03983396_10476.JPEG
alexnet,3,753,NaN,airplane,bottle,c10,3313_con_dnn_c10_bottle_10_n02823428_10584.JPEG
alexnet,3,754,NaN,dog,bottle,c10,3314_con_dnn_c10_bottle_10_n03937543_2140.JPEG
alexnet,3,755,NaN,bottle,bottle,c10,3315_con_dnn_c10_bottle_10_n04557648_11070.JPEG
alexnet,3,756,NaN,bear,bottle,c10,3316_con_dnn_c10_bottle_10_n03983396_5911.JPEG
alexnet,3,757,NaN,bottle,bottle,c10,3317_con_dnn_c10_bottle_10_n04560804_4138.JPEG
alexnet,3,758,NaN,bottle,bottle,c10,3318_con_dnn_c10_bottle_10_n03983396_397.JPEG
alexnet,3,759,NaN,bottle,bottle,c10,3319_con_dnn_c10_bottle_10_n03983396_4701.JPEG
alexnet,3,760,NaN,boat,bottle,c10,3320_con_dnn_c10_bottle_10_n04560804_14491.JPEG
alexnet,3,761,NaN,truck,truck,c10,3321_con_dnn_c10_truck_10_n03796401_172.JPEG
alexnet,3,762,NaN,truck,truck,c10,3322_con_dnn_c10_truck_10_n03796401_19058.JPEG
alexnet,3,763,NaN,truck,truck,c10,3323_con_dnn_c10_truck_10_n04467665_779.JPEG
alexnet,3,764,NaN,chair,truck,c10,3324_con_dnn_c10_truck_10_n04467665_9123.JPEG
alexnet,3,765,NaN,boat,truck,c10,3325_con_dnn_c10_truck_10_n04467665_16069.JPEG
alexnet,3,766,NaN,truck,truck,c10,3326_con_dnn_c10_truck_10_n03417042_4900.JPEG
alexnet,3,767,NaN,truck,truck,c10,3327_con_dnn_c10_truck_10_n03417042_11883.JPEG
alexnet,3,768,NaN,truck,truck,c10,3328_con_dnn_c10_truck_10_n04467665_1947.JPEG
alexnet,3,769,NaN,bottle,truck,c10,3329_con_dnn_c10_truck_10_n03417042_5346.JPEG
alexnet,3,770,NaN,bottle,truck,c10,3330_con_dnn_c10_truck_10_n04467665_7464.JPEG
alexnet,3,771,NaN,boat,car,c10,3331_con_dnn_c10_car_10_n03100240_1879.JPEG
alexnet,3,772,NaN,bear,car,c10,3332_con_dnn_c10_car_10_n03100240_14948.JPEG
alexnet,3,773,NaN,airplane,car,c10,3333_con_dnn_c10_car_10_n04285008_13211.JPEG
alexnet,3,774,NaN,clock,car,c10,3334_con_dnn_c10_car_10_n03100240_15375.JPEG
alexnet,3,775,NaN,airplane,car,c10,3335_con_dnn_c10_car_10_n03100240_17754.JPEG
alexnet,3,776,NaN,dog,car,c10,3336_con_dnn_c10_car_10_n03100240_4354.JPEG
alexnet,3,777,NaN,bottle,car,c10,3337_con_dnn_c10_car_10_n03100240_7219.JPEG
alexnet,3,778,NaN,car,car,c10,3338_con_dnn_c10_car_10_n04285008_8584.JPEG
alexnet,3,779,NaN,car,car,c10,3339_con_dnn_c10_car_10_n03100240_5776.JPEG
alexnet,3,780,NaN,car,car,c10,3340_con_dnn_c10_car_10_n02814533_25986.JPEG
alexnet,3,781,NaN,airplane,bird,c10,3341_con_dnn_c10_bird_10_n02017213_2122.JPEG
alexnet,3,782,NaN,bird,bird,c10,3342_con_dnn_c10_bird_10_n01829413_8757.JPEG
alexnet,3,783,NaN,bird,bird,c10,3343_con_dnn_c10_bird_10_n02017213_11387.JPEG
alexnet,3,784,NaN,bottle,bird,c10,3344_con_dnn_c10_bird_10_n02028035_5363.JPEG
alexnet,3,785,NaN,bird,bird,c10,3345_con_dnn_c10_bird_10_n02002724_3217.JPEG
alexnet,3,786,NaN,bird,bird,c10,3346_con_dnn_c10_bird_10_n02027492_1229.JPEG
alexnet,3,787,NaN,bird,bird,c10,3347_con_dnn_c10_bird_10_n01818515_7585.JPEG
alexnet,3,788,NaN,bottle,bird,c10,3348_con_dnn_c10_bird_10_n01843065_4433.JPEG
alexnet,3,789,NaN,dog,bird,c10,3349_con_dnn_c10_bird_10_n02018207_1317.JPEG
alexnet,3,790,NaN,bird,bird,c10,3350_con_dnn_c10_bird_10_n02027492_5758.JPEG
alexnet,3,791,NaN,boat,dog,c10,3351_con_dnn_c10_dog_10_n02112706_5519.JPEG
alexnet,3,792,NaN,bear,dog,c10,3352_con_dnn_c10_dog_10_n02100877_8900.JPEG
alexnet,3,793,NaN,bear,dog,c10,3353_con_dnn_c10_dog_10_n02105641_643.JPEG
alexnet,3,794,NaN,bottle,dog,c10,3354_con_dnn_c10_dog_10_n02113023_11276.JPEG
alexnet,3,795,NaN,boat,dog,c10,3355_con_dnn_c10_dog_10_n02093754_3888.JPEG
alexnet,3,796,NaN,bottle,dog,c10,3356_con_dnn_c10_dog_10_n02092002_929.JPEG
alexnet,3,797,NaN,dog,dog,c10,3357_con_dnn_c10_dog_10_n02112706_5262.JPEG
alexnet,3,798,NaN,boat,dog,c10,3358_con_dnn_c10_dog_10_n02096585_11164.JPEG
alexnet,3,799,NaN,bird,dog,c10,3359_con_dnn_c10_dog_10_n02092339_7422.JPEG
alexnet,3,800,NaN,bear,dog,c10,3360_con_dnn_c10_dog_10_n02096294_430.JPEG
alexnet,3,801,NaN,airplane,knife,c05,3361_con_dnn_c05_knife_10_n03041632_23803.JPEG
alexnet,3,802,NaN,bear,knife,c05,3362_con_dnn_c05_knife_10_n03041632_30457.JPEG
alexnet,3,803,NaN,airplane,knife,c05,3363_con_dnn_c05_knife_10_n03041632_18468.JPEG
alexnet,3,804,NaN,boat,knife,c05,3364_con_dnn_c05_knife_10_n03041632_26710.JPEG
alexnet,3,805,NaN,bottle,knife,c05,3365_con_dnn_c05_knife_10_n03041632_24817.JPEG
alexnet,3,806,NaN,bird,knife,c05,3366_con_dnn_c05_knife_10_n03041632_32054.JPEG
alexnet,3,807,NaN,airplane,knife,c05,3367_con_dnn_c05_knife_10_n03041632_4044.JPEG
alexnet,3,808,NaN,bear,knife,c05,3368_con_dnn_c05_knife_10_n03041632_86118.JPEG
alexnet,3,809,NaN,bear,knife,c05,3369_con_dnn_c05_knife_10_n03041632_7119.JPEG
alexnet,3,810,NaN,bear,knife,c05,3370_con_dnn_c05_knife_10_n03041632_32177.JPEG
alexnet,3,811,NaN,bear,keyboard,c05,3371_con_dnn_c05_keyboard_10_n03085013_29576.JPEG
alexnet,3,812,NaN,bird,keyboard,c05,3372_con_dnn_c05_keyboard_10_n04505470_4422.JPEG
alexnet,3,813,NaN,bottle,keyboard,c05,3373_con_dnn_c05_keyboard_10_n03085013_24228.JPEG
alexnet,3,814,NaN,bird,keyboard,c05,3374_con_dnn_c05_keyboard_10_n03085013_20523.JPEG
alexnet,3,815,NaN,airplane,keyboard,c05,3375_con_dnn_c05_keyboard_10_n04505470_1412.JPEG
alexnet,3,816,NaN,clock,keyboard,c05,3376_con_dnn_c05_keyboard_10_n03085013_22669.JPEG
alexnet,3,817,NaN,bear,keyboard,c05,3377_con_dnn_c05_keyboard_10_n03085013_19581.JPEG
alexnet,3,818,NaN,bear,keyboard,c05,3378_con_dnn_c05_keyboard_10_n03085013_22704.JPEG
alexnet,3,819,NaN,bear,keyboard,c05,3379_con_dnn_c05_keyboard_10_n03085013_2064.JPEG
alexnet,3,820,NaN,bottle,keyboard,c05,3380_con_dnn_c05_keyboard_10_n03085013_24088.JPEG
alexnet,3,821,NaN,airplane,elephant,c05,3381_con_dnn_c05_elephant_10_n02504013_16197.JPEG
alexnet,3,822,NaN,bear,elephant,c05,3382_con_dnn_c05_elephant_10_n02504013_1769.JPEG
alexnet,3,823,NaN,boat,elephant,c05,3383_con_dnn_c05_elephant_10_n02504458_359.JPEG
alexnet,3,824,NaN,bear,elephant,c05,3384_con_dnn_c05_elephant_10_n02504458_1473.JPEG
alexnet,3,825,NaN,bear,elephant,c05,3385_con_dnn_c05_elephant_10_n02504013_2498.JPEG
alexnet,3,826,NaN,bear,elephant,c05,3386_con_dnn_c05_elephant_10_n02504013_5221.JPEG
alexnet,3,827,NaN,bear,elephant,c05,3387_con_dnn_c05_elephant_10_n02504458_2100.JPEG
alexnet,3,828,NaN,bear,elephant,c05,3388_con_dnn_c05_elephant_10_n02504013_8572.JPEG
alexnet,3,829,NaN,bird,elephant,c05,3389_con_dnn_c05_elephant_10_n02504013_4531.JPEG
alexnet,3,830,NaN,bottle,elephant,c05,3390_con_dnn_c05_elephant_10_n02504458_6449.JPEG
alexnet,3,831,NaN,airplane,bicycle,c05,3391_con_dnn_c05_bicycle_10_n03792782_48920.JPEG
alexnet,3,832,NaN,boat,bicycle,c05,3392_con_dnn_c05_bicycle_10_n02835271_11915.JPEG
alexnet,3,833,NaN,bird,bicycle,c05,3393_con_dnn_c05_bicycle_10_n02835271_13395.JPEG
alexnet,3,834,NaN,bear,bicycle,c05,3394_con_dnn_c05_bicycle_10_n03792782_19083.JPEG
alexnet,3,835,NaN,bird,bicycle,c05,3395_con_dnn_c05_bicycle_10_n02835271_8273.JPEG
alexnet,3,836,NaN,bird,bicycle,c05,3396_con_dnn_c05_bicycle_10_n02835271_276.JPEG
alexnet,3,837,NaN,bottle,bicycle,c05,3397_con_dnn_c05_bicycle_10_n02835271_7148.JPEG
alexnet,3,838,NaN,bear,bicycle,c05,3398_con_dnn_c05_bicycle_10_n03792782_4708.JPEG
alexnet,3,839,NaN,bottle,bicycle,c05,3399_con_dnn_c05_bicycle_10_n02835271_7828.JPEG
alexnet,3,840,NaN,bottle,bicycle,c05,3400_con_dnn_c05_bicycle_10_n02835271_3874.JPEG
alexnet,3,841,NaN,bird,airplane,c05,3401_con_dnn_c05_airplane_10_n02690373_16620.JPEG
alexnet,3,842,NaN,boat,airplane,c05,3402_con_dnn_c05_airplane_10_n02690373_10817.JPEG
alexnet,3,843,NaN,boat,airplane,c05,3403_con_dnn_c05_airplane_10_n02690373_1972.JPEG
alexnet,3,844,NaN,bear,airplane,c05,3404_con_dnn_c05_airplane_10_n02690373_6942.JPEG
alexnet,3,845,NaN,bear,airplane,c05,3405_con_dnn_c05_airplane_10_n02690373_5866.JPEG
alexnet,3,846,NaN,bear,airplane,c05,3406_con_dnn_c05_airplane_10_n02690373_4105.JPEG
alexnet,3,847,NaN,bear,airplane,c05,3407_con_dnn_c05_airplane_10_n02690373_13021.JPEG
alexnet,3,848,NaN,airplane,airplane,c05,3408_con_dnn_c05_airplane_10_n02690373_13078.JPEG
alexnet,3,849,NaN,airplane,airplane,c05,3409_con_dnn_c05_airplane_10_n02690373_9432.JPEG
alexnet,3,850,NaN,bear,airplane,c05,3410_con_dnn_c05_airplane_10_n02690373_4269.JPEG
alexnet,3,851,NaN,bear,clock,c05,3411_con_dnn_c05_clock_10_n04548280_2942.JPEG
alexnet,3,852,NaN,bottle,clock,c05,3412_con_dnn_c05_clock_10_n04548280_5072.JPEG
alexnet,3,853,NaN,clock,clock,c05,3413_con_dnn_c05_clock_10_n04548280_1146.JPEG
alexnet,3,854,NaN,bear,clock,c05,3414_con_dnn_c05_clock_10_n04548280_1190.JPEG
alexnet,3,855,NaN,airplane,clock,c05,3415_con_dnn_c05_clock_10_n03196217_7274.JPEG
alexnet,3,856,NaN,bird,clock,c05,3416_con_dnn_c05_clock_10_n04548280_1323.JPEG
alexnet,3,857,NaN,bear,clock,c05,3417_con_dnn_c05_clock_10_n04548280_3386.JPEG
alexnet,3,858,NaN,bottle,clock,c05,3418_con_dnn_c05_clock_10_n03196217_6178.JPEG
alexnet,3,859,NaN,clock,clock,c05,3419_con_dnn_c05_clock_10_n02708093_425.JPEG
alexnet,3,860,NaN,bottle,clock,c05,3420_con_dnn_c05_clock_10_n02708093_2546.JPEG
alexnet,3,861,NaN,bottle,oven,c05,3421_con_dnn_c05_oven_10_n04111531_18645.JPEG
alexnet,3,862,NaN,bottle,oven,c05,3422_con_dnn_c05_oven_10_n04111531_7345.JPEG
alexnet,3,863,NaN,bear,oven,c05,3423_con_dnn_c05_oven_10_n04111531_19126.JPEG
alexnet,3,864,NaN,bear,oven,c05,3424_con_dnn_c05_oven_10_n04111531_4665.JPEG
alexnet,3,865,NaN,bear,oven,c05,3425_con_dnn_c05_oven_10_n04111531_7664.JPEG
alexnet,3,866,NaN,bear,oven,c05,3426_con_dnn_c05_oven_10_n04111531_505.JPEG
alexnet,3,867,NaN,bird,oven,c05,3427_con_dnn_c05_oven_10_n04111531_4050.JPEG
alexnet,3,868,NaN,boat,oven,c05,3428_con_dnn_c05_oven_10_n04111531_1220.JPEG
alexnet,3,869,NaN,truck,oven,c05,3429_con_dnn_c05_oven_10_n04111531_11225.JPEG
alexnet,3,870,NaN,bear,oven,c05,3430_con_dnn_c05_oven_10_n04111531_10476.JPEG
alexnet,3,871,NaN,chair,chair,c05,3431_con_dnn_c05_chair_10_n02791124_4977.JPEG
alexnet,3,872,NaN,bird,chair,c05,3432_con_dnn_c05_chair_10_n04429376_26222.JPEG
alexnet,3,873,NaN,bottle,chair,c05,3433_con_dnn_c05_chair_10_n02791124_56.JPEG
alexnet,3,874,NaN,bottle,chair,c05,3434_con_dnn_c05_chair_10_n03376595_302.JPEG
alexnet,3,875,NaN,boat,chair,c05,3435_con_dnn_c05_chair_10_n04099969_20684.JPEG
alexnet,3,876,NaN,chair,chair,c05,3436_con_dnn_c05_chair_10_n04429376_25642.JPEG
alexnet,3,877,NaN,bottle,chair,c05,3437_con_dnn_c05_chair_10_n02791124_15845.JPEG
alexnet,3,878,NaN,bottle,chair,c05,3438_con_dnn_c05_chair_10_n04429376_9022.JPEG
alexnet,3,879,NaN,bear,chair,c05,3439_con_dnn_c05_chair_10_n04099969_8080.JPEG
alexnet,3,880,NaN,chair,chair,c05,3440_con_dnn_c05_chair_10_n04099969_20567.JPEG
alexnet,3,881,NaN,bird,bear,c05,3441_con_dnn_c05_bear_10_n02133161_2928.JPEG
alexnet,3,882,NaN,bird,bear,c05,3442_con_dnn_c05_bear_10_n02133161_7857.JPEG
alexnet,3,883,NaN,bird,bear,c05,3443_con_dnn_c05_bear_10_n02134418_3774.JPEG
alexnet,3,884,NaN,bear,bear,c05,3444_con_dnn_c05_bear_10_n02134084_12700.JPEG
alexnet,3,885,NaN,bear,bear,c05,3445_con_dnn_c05_bear_10_n02133161_14303.JPEG
alexnet,3,886,NaN,bird,bear,c05,3446_con_dnn_c05_bear_10_n02132136_18695.JPEG
alexnet,3,887,NaN,bear,bear,c05,3447_con_dnn_c05_bear_10_n02132136_8750.JPEG
alexnet,3,888,NaN,airplane,bear,c05,3448_con_dnn_c05_bear_10_n02132136_3018.JPEG
alexnet,3,889,NaN,bear,bear,c05,3449_con_dnn_c05_bear_10_n02134418_1652.JPEG
alexnet,3,890,NaN,bird,bear,c05,3450_con_dnn_c05_bear_10_n02134084_622.JPEG
alexnet,3,891,NaN,bear,boat,c05,3451_con_dnn_c05_boat_10_n03344393_4948.JPEG
alexnet,3,892,NaN,bear,boat,c05,3452_con_dnn_c05_boat_10_n03662601_28723.JPEG
alexnet,3,893,NaN,boat,boat,c05,3453_con_dnn_c05_boat_10_n02951358_15252.JPEG
alexnet,3,894,NaN,airplane,boat,c05,3454_con_dnn_c05_boat_10_n02951358_10068.JPEG
alexnet,3,895,NaN,bear,boat,c05,3455_con_dnn_c05_boat_10_n03344393_4997.JPEG
alexnet,3,896,NaN,bear,boat,c05,3456_con_dnn_c05_boat_10_n03662601_19488.JPEG
alexnet,3,897,NaN,bear,boat,c05,3457_con_dnn_c05_boat_10_n04273569_4348.JPEG
alexnet,3,898,NaN,boat,boat,c05,3458_con_dnn_c05_boat_10_n03344393_382.JPEG
alexnet,3,899,NaN,boat,boat,c05,3459_con_dnn_c05_boat_10_n03344393_2357.JPEG
alexnet,3,900,NaN,airplane,boat,c05,3460_con_dnn_c05_boat_10_n02951358_11248.JPEG
alexnet,3,901,NaN,bird,cat,c05,3461_con_dnn_c05_cat_10_n02124075_1144.JPEG
alexnet,3,902,NaN,bear,cat,c05,3462_con_dnn_c05_cat_10_n02123597_13551.JPEG
alexnet,3,903,NaN,bear,cat,c05,3463_con_dnn_c05_cat_10_n02123045_5241.JPEG
alexnet,3,904,NaN,bear,cat,c05,3464_con_dnn_c05_cat_10_n02124075_10035.JPEG
alexnet,3,905,NaN,bear,cat,c05,3465_con_dnn_c05_cat_10_n02124075_12672.JPEG
alexnet,3,906,NaN,bear,cat,c05,3466_con_dnn_c05_cat_10_n02123045_397.JPEG
alexnet,3,907,NaN,bear,cat,c05,3467_con_dnn_c05_cat_10_n02123159_2983.JPEG
alexnet,3,908,NaN,bear,cat,c05,3468_con_dnn_c05_cat_10_n02123394_3718.JPEG
alexnet,3,909,NaN,bird,cat,c05,3469_con_dnn_c05_cat_10_n02124075_9591.JPEG
alexnet,3,910,NaN,airplane,cat,c05,3470_con_dnn_c05_cat_10_n02125311_19678.JPEG
alexnet,3,911,NaN,bear,bottle,c05,3471_con_dnn_c05_bottle_10_n04557648_2649.JPEG
alexnet,3,912,NaN,bear,bottle,c05,3472_con_dnn_c05_bottle_10_n03937543_6233.JPEG
alexnet,3,913,NaN,bear,bottle,c05,3473_con_dnn_c05_bottle_10_n03937543_211.JPEG
alexnet,3,914,NaN,bottle,bottle,c05,3474_con_dnn_c05_bottle_10_n04560804_16067.JPEG
alexnet,3,915,NaN,bear,bottle,c05,3475_con_dnn_c05_bottle_10_n04591713_4270.JPEG
alexnet,3,916,NaN,bottle,bottle,c05,3476_con_dnn_c05_bottle_10_n04557648_444.JPEG
alexnet,3,917,NaN,bottle,bottle,c05,3477_con_dnn_c05_bottle_10_n03937543_751.JPEG
alexnet,3,918,NaN,bottle,bottle,c05,3478_con_dnn_c05_bottle_10_n02823428_2847.JPEG
alexnet,3,919,NaN,bottle,bottle,c05,3479_con_dnn_c05_bottle_10_n04560804_17340.JPEG
alexnet,3,920,NaN,airplane,bottle,c05,3480_con_dnn_c05_bottle_10_n04557648_26820.JPEG
alexnet,3,921,NaN,bottle,truck,c05,3481_con_dnn_c05_truck_10_n04467665_2295.JPEG
alexnet,3,922,NaN,bear,truck,c05,3482_con_dnn_c05_truck_10_n03417042_5600.JPEG
alexnet,3,923,NaN,bear,truck,c05,3483_con_dnn_c05_truck_10_n03417042_23057.JPEG
alexnet,3,924,NaN,bear,truck,c05,3484_con_dnn_c05_truck_10_n04467665_3710.JPEG
alexnet,3,925,NaN,bear,truck,c05,3485_con_dnn_c05_truck_10_n03417042_18699.JPEG
alexnet,3,926,NaN,truck,truck,c05,3486_con_dnn_c05_truck_10_n03417042_11558.JPEG
alexnet,3,927,NaN,bear,truck,c05,3487_con_dnn_c05_truck_10_n04467665_67560.JPEG
alexnet,3,928,NaN,boat,truck,c05,3488_con_dnn_c05_truck_10_n03417042_10538.JPEG
alexnet,3,929,NaN,bear,truck,c05,3489_con_dnn_c05_truck_10_n03796401_3026.JPEG
alexnet,3,930,NaN,boat,truck,c05,3490_con_dnn_c05_truck_10_n04467665_1956.JPEG
alexnet,3,931,NaN,bear,car,c05,3491_con_dnn_c05_car_10_n02814533_1178.JPEG
alexnet,3,932,NaN,bear,car,c05,3492_con_dnn_c05_car_10_n02814533_8345.JPEG
alexnet,3,933,NaN,bear,car,c05,3493_con_dnn_c05_car_10_n03100240_8588.JPEG
alexnet,3,934,NaN,boat,car,c05,3494_con_dnn_c05_car_10_n02814533_90798.JPEG
alexnet,3,935,NaN,bear,car,c05,3495_con_dnn_c05_car_10_n03100240_18725.JPEG
alexnet,3,936,NaN,bear,car,c05,3496_con_dnn_c05_car_10_n02814533_2759.JPEG
alexnet,3,937,NaN,bear,car,c05,3497_con_dnn_c05_car_10_n03100240_7429.JPEG
alexnet,3,938,NaN,airplane,car,c05,3498_con_dnn_c05_car_10_n04285008_8275.JPEG
alexnet,3,939,NaN,boat,car,c05,3499_con_dnn_c05_car_10_n03100240_17517.JPEG
alexnet,3,940,NaN,airplane,car,c05,3500_con_dnn_c05_car_10_n04285008_4098.JPEG
alexnet,3,941,NaN,bear,bird,c05,3501_con_dnn_c05_bird_10_n01797886_6067.JPEG
alexnet,3,942,NaN,bear,bird,c05,3502_con_dnn_c05_bird_10_n01820546_11624.JPEG
alexnet,3,943,NaN,bird,bird,c05,3503_con_dnn_c05_bird_10_n01616318_2219.JPEG
alexnet,3,944,NaN,bear,bird,c05,3504_con_dnn_c05_bird_10_n01558993_16562.JPEG
alexnet,3,945,NaN,bird,bird,c05,3505_con_dnn_c05_bird_10_n02025239_7052.JPEG
alexnet,3,946,NaN,bear,bird,c05,3506_con_dnn_c05_bird_10_n01797886_21609.JPEG
alexnet,3,947,NaN,airplane,bird,c05,3507_con_dnn_c05_bird_10_n01622779_14695.JPEG
alexnet,3,948,NaN,bird,bird,c05,3508_con_dnn_c05_bird_10_n01843383_5684.JPEG
alexnet,3,949,NaN,bird,bird,c05,3509_con_dnn_c05_bird_10_n02017213_1344.JPEG
alexnet,3,950,NaN,bear,bird,c05,3510_con_dnn_c05_bird_10_n01824575_8598.JPEG
alexnet,3,951,NaN,bear,dog,c05,3511_con_dnn_c05_dog_10_n02097658_5572.JPEG
alexnet,3,952,NaN,bear,dog,c05,3512_con_dnn_c05_dog_10_n02100877_16941.JPEG
alexnet,3,953,NaN,bear,dog,c05,3513_con_dnn_c05_dog_10_n02102177_6532.JPEG
alexnet,3,954,NaN,bear,dog,c05,3514_con_dnn_c05_dog_10_n02100583_23043.JPEG
alexnet,3,955,NaN,bear,dog,c05,3515_con_dnn_c05_dog_10_n02091467_13304.JPEG
alexnet,3,956,NaN,bear,dog,c05,3516_con_dnn_c05_dog_10_n02106030_13801.JPEG
alexnet,3,957,NaN,bird,dog,c05,3517_con_dnn_c05_dog_10_n02094433_1685.JPEG
alexnet,3,958,NaN,bear,dog,c05,3518_con_dnn_c05_dog_10_n02107142_501.JPEG
alexnet,3,959,NaN,bear,dog,c05,3519_con_dnn_c05_dog_10_n02106550_5499.JPEG
alexnet,3,960,NaN,bear,dog,c05,3520_con_dnn_c05_dog_10_n02107683_2878.JPEG
alexnet,3,961,NaN,airplane,knife,c03,3521_con_dnn_c03_knife_10_n03041632_12748.JPEG
alexnet,3,962,NaN,bear,knife,c03,3522_con_dnn_c03_knife_10_n03041632_9157.JPEG
alexnet,3,963,NaN,bear,knife,c03,3523_con_dnn_c03_knife_10_n03041632_5640.JPEG
alexnet,3,964,NaN,bear,knife,c03,3524_con_dnn_c03_knife_10_n03041632_50648.JPEG
alexnet,3,965,NaN,bear,knife,c03,3525_con_dnn_c03_knife_10_n03041632_2319.JPEG
alexnet,3,966,NaN,airplane,knife,c03,3526_con_dnn_c03_knife_10_n03041632_8051.JPEG
alexnet,3,967,NaN,airplane,knife,c03,3527_con_dnn_c03_knife_10_n03041632_3717.JPEG
alexnet,3,968,NaN,bear,knife,c03,3528_con_dnn_c03_knife_10_n03041632_36235.JPEG
alexnet,3,969,NaN,bear,knife,c03,3529_con_dnn_c03_knife_10_n03041632_11932.JPEG
alexnet,3,970,NaN,bear,knife,c03,3530_con_dnn_c03_knife_10_n03041632_15431.JPEG
alexnet,3,971,NaN,bear,keyboard,c03,3531_con_dnn_c03_keyboard_10_n03085013_22494.JPEG
alexnet,3,972,NaN,airplane,keyboard,c03,3532_con_dnn_c03_keyboard_10_n03085013_22447.JPEG
alexnet,3,973,NaN,bear,keyboard,c03,3533_con_dnn_c03_keyboard_10_n04505470_4490.JPEG
alexnet,3,974,NaN,bear,keyboard,c03,3534_con_dnn_c03_keyboard_10_n04505470_2114.JPEG
alexnet,3,975,NaN,bottle,keyboard,c03,3535_con_dnn_c03_keyboard_10_n03085013_13494.JPEG
alexnet,3,976,NaN,bear,keyboard,c03,3536_con_dnn_c03_keyboard_10_n03085013_29865.JPEG
alexnet,3,977,NaN,airplane,keyboard,c03,3537_con_dnn_c03_keyboard_10_n04505470_2141.JPEG
alexnet,3,978,NaN,bear,keyboard,c03,3538_con_dnn_c03_keyboard_10_n04505470_2679.JPEG
alexnet,3,979,NaN,bear,keyboard,c03,3539_con_dnn_c03_keyboard_10_n03085013_31364.JPEG
alexnet,3,980,NaN,bear,keyboard,c03,3540_con_dnn_c03_keyboard_10_n03085013_8572.JPEG
alexnet,3,981,NaN,airplane,elephant,c03,3541_con_dnn_c03_elephant_10_n02504013_19694.JPEG
alexnet,3,982,NaN,bear,elephant,c03,3542_con_dnn_c03_elephant_10_n02504458_7324.JPEG
alexnet,3,983,NaN,bear,elephant,c03,3543_con_dnn_c03_elephant_10_n02504458_10432.JPEG
alexnet,3,984,NaN,bear,elephant,c03,3544_con_dnn_c03_elephant_10_n02504458_7123.JPEG
alexnet,3,985,NaN,airplane,elephant,c03,3545_con_dnn_c03_elephant_10_n02504013_7026.JPEG
alexnet,3,986,NaN,bear,elephant,c03,3546_con_dnn_c03_elephant_10_n02504458_574.JPEG
alexnet,3,987,NaN,airplane,elephant,c03,3547_con_dnn_c03_elephant_10_n02504458_4401.JPEG
alexnet,3,988,NaN,bear,elephant,c03,3548_con_dnn_c03_elephant_10_n02504013_4044.JPEG
alexnet,3,989,NaN,bear,elephant,c03,3549_con_dnn_c03_elephant_10_n02504458_3891.JPEG
alexnet,3,990,NaN,airplane,elephant,c03,3550_con_dnn_c03_elephant_10_n02504458_1157.JPEG
alexnet,3,991,NaN,airplane,bicycle,c03,3551_con_dnn_c03_bicycle_10_n03792782_4403.JPEG
alexnet,3,992,NaN,bear,bicycle,c03,3552_con_dnn_c03_bicycle_10_n03792782_1642.JPEG
alexnet,3,993,NaN,bear,bicycle,c03,3553_con_dnn_c03_bicycle_10_n02835271_1932.JPEG
alexnet,3,994,NaN,airplane,bicycle,c03,3554_con_dnn_c03_bicycle_10_n03792782_52427.JPEG
alexnet,3,995,NaN,bear,bicycle,c03,3555_con_dnn_c03_bicycle_10_n03792782_11417.JPEG
alexnet,3,996,NaN,bear,bicycle,c03,3556_con_dnn_c03_bicycle_10_n02835271_21395.JPEG
alexnet,3,997,NaN,bear,bicycle,c03,3557_con_dnn_c03_bicycle_10_n03792782_31010.JPEG
alexnet,3,998,NaN,bear,bicycle,c03,3558_con_dnn_c03_bicycle_10_n02835271_26339.JPEG
alexnet,3,999,NaN,bear,bicycle,c03,3559_con_dnn_c03_bicycle_10_n02835271_17424.JPEG
alexnet,3,1000,NaN,bear,bicycle,c03,3560_con_dnn_c03_bicycle_10_n02835271_27014.JPEG
alexnet,3,1001,NaN,airplane,airplane,c03,3561_con_dnn_c03_airplane_10_n02690373_3090.JPEG
alexnet,3,1002,NaN,bear,airplane,c03,3562_con_dnn_c03_airplane_10_n02690373_5462.JPEG
alexnet,3,1003,NaN,bear,airplane,c03,3563_con_dnn_c03_airplane_10_n02690373_5221.JPEG
alexnet,3,1004,NaN,bear,airplane,c03,3564_con_dnn_c03_airplane_10_n02690373_4202.JPEG
alexnet,3,1005,NaN,airplane,airplane,c03,3565_con_dnn_c03_airplane_10_n02690373_8770.JPEG
alexnet,3,1006,NaN,airplane,airplane,c03,3566_con_dnn_c03_airplane_10_n02690373_736.JPEG
alexnet,3,1007,NaN,airplane,airplane,c03,3567_con_dnn_c03_airplane_10_n02690373_6682.JPEG
alexnet,3,1008,NaN,airplane,airplane,c03,3568_con_dnn_c03_airplane_10_n02690373_9376.JPEG
alexnet,3,1009,NaN,bear,airplane,c03,3569_con_dnn_c03_airplane_10_n02690373_6621.JPEG
alexnet,3,1010,NaN,airplane,airplane,c03,3570_con_dnn_c03_airplane_10_n02690373_614.JPEG
alexnet,3,1011,NaN,bottle,clock,c03,3571_con_dnn_c03_clock_10_n04548280_8429.JPEG
alexnet,3,1012,NaN,bear,clock,c03,3572_con_dnn_c03_clock_10_n04548280_3047.JPEG
alexnet,3,1013,NaN,airplane,clock,c03,3573_con_dnn_c03_clock_10_n03196217_6672.JPEG
alexnet,3,1014,NaN,bear,clock,c03,3574_con_dnn_c03_clock_10_n04548280_1108.JPEG
alexnet,3,1015,NaN,bird,clock,c03,3575_con_dnn_c03_clock_10_n02708093_870.JPEG
alexnet,3,1016,NaN,airplane,clock,c03,3576_con_dnn_c03_clock_10_n04548280_7069.JPEG
alexnet,3,1017,NaN,bear,clock,c03,3577_con_dnn_c03_clock_10_n04548280_532.JPEG
alexnet,3,1018,NaN,clock,clock,c03,3578_con_dnn_c03_clock_10_n04548280_1106.JPEG
alexnet,3,1019,NaN,boat,clock,c03,3579_con_dnn_c03_clock_10_n03196217_1109.JPEG
alexnet,3,1020,NaN,airplane,clock,c03,3580_con_dnn_c03_clock_10_n03196217_9563.JPEG
alexnet,3,1021,NaN,bear,oven,c03,3581_con_dnn_c03_oven_10_n04111531_17045.JPEG
alexnet,3,1022,NaN,bear,oven,c03,3582_con_dnn_c03_oven_10_n04111531_8290.JPEG
alexnet,3,1023,NaN,bear,oven,c03,3583_con_dnn_c03_oven_10_n04111531_2458.JPEG
alexnet,3,1024,NaN,bear,oven,c03,3584_con_dnn_c03_oven_10_n04111531_10555.JPEG
alexnet,3,1025,NaN,bear,oven,c03,3585_con_dnn_c03_oven_10_n04111531_9297.JPEG
alexnet,3,1026,NaN,bear,oven,c03,3586_con_dnn_c03_oven_10_n04111531_2133.JPEG
alexnet,3,1027,NaN,bear,oven,c03,3587_con_dnn_c03_oven_10_n04111531_3159.JPEG
alexnet,3,1028,NaN,bear,oven,c03,3588_con_dnn_c03_oven_10_n04111531_1750.JPEG
alexnet,3,1029,NaN,airplane,oven,c03,3589_con_dnn_c03_oven_10_n04111531_6628.JPEG
alexnet,3,1030,NaN,airplane,oven,c03,3590_con_dnn_c03_oven_10_n04111531_4370.JPEG
alexnet,3,1031,NaN,chair,chair,c03,3591_con_dnn_c03_chair_10_n03376595_1417.JPEG
alexnet,3,1032,NaN,airplane,chair,c03,3592_con_dnn_c03_chair_10_n03376595_6659.JPEG
alexnet,3,1033,NaN,airplane,chair,c03,3593_con_dnn_c03_chair_10_n02791124_13951.JPEG
alexnet,3,1034,NaN,bear,chair,c03,3594_con_dnn_c03_chair_10_n04429376_21546.JPEG
alexnet,3,1035,NaN,bear,chair,c03,3595_con_dnn_c03_chair_10_n04429376_45184.JPEG
alexnet,3,1036,NaN,airplane,chair,c03,3596_con_dnn_c03_chair_10_n03376595_9901.JPEG
alexnet,3,1037,NaN,bear,chair,c03,3597_con_dnn_c03_chair_10_n02791124_9466.JPEG
alexnet,3,1038,NaN,bear,chair,c03,3598_con_dnn_c03_chair_10_n04099969_10458.JPEG
alexnet,3,1039,NaN,bear,chair,c03,3599_con_dnn_c03_chair_10_n02791124_15739.JPEG
alexnet,3,1040,NaN,airplane,chair,c03,3600_con_dnn_c03_chair_10_n02791124_1113.JPEG
alexnet,3,1041,NaN,airplane,bear,c03,3601_con_dnn_c03_bear_10_n02133161_8448.JPEG
alexnet,3,1042,NaN,bear,bear,c03,3602_con_dnn_c03_bear_10_n02134418_4979.JPEG
alexnet,3,1043,NaN,airplane,bear,c03,3603_con_dnn_c03_bear_10_n02133161_178.JPEG
alexnet,3,1044,NaN,airplane,bear,c03,3604_con_dnn_c03_bear_10_n02133161_1204.JPEG
alexnet,3,1045,NaN,bear,bear,c03,3605_con_dnn_c03_bear_10_n02134418_1908.JPEG
alexnet,3,1046,NaN,bear,bear,c03,3606_con_dnn_c03_bear_10_n02133161_489.JPEG
alexnet,3,1047,NaN,airplane,bear,c03,3607_con_dnn_c03_bear_10_n02133161_12745.JPEG
alexnet,3,1048,NaN,bear,bear,c03,3608_con_dnn_c03_bear_10_n02134084_27094.JPEG
alexnet,3,1049,NaN,bear,bear,c03,3609_con_dnn_c03_bear_10_n02134084_7868.JPEG
alexnet,3,1050,NaN,airplane,bear,c03,3610_con_dnn_c03_bear_10_n02134084_16100.JPEG
alexnet,3,1051,NaN,airplane,boat,c03,3611_con_dnn_c03_boat_10_n03662601_16225.JPEG
alexnet,3,1052,NaN,boat,boat,c03,3612_con_dnn_c03_boat_10_n03344393_3032.JPEG
alexnet,3,1053,NaN,bear,boat,c03,3613_con_dnn_c03_boat_10_n03344393_4273.JPEG
alexnet,3,1054,NaN,bear,boat,c03,3614_con_dnn_c03_boat_10_n03662601_8096.JPEG
alexnet,3,1055,NaN,airplane,boat,c03,3615_con_dnn_c03_boat_10_n04612504_4259.JPEG
alexnet,3,1056,NaN,bear,boat,c03,3616_con_dnn_c03_boat_10_n03662601_25461.JPEG
alexnet,3,1057,NaN,bear,boat,c03,3617_con_dnn_c03_boat_10_n02951358_3979.JPEG
alexnet,3,1058,NaN,bear,boat,c03,3618_con_dnn_c03_boat_10_n02951358_1059.JPEG
alexnet,3,1059,NaN,bear,boat,c03,3619_con_dnn_c03_boat_10_n03344393_2347.JPEG
alexnet,3,1060,NaN,bear,boat,c03,3620_con_dnn_c03_boat_10_n02951358_8627.JPEG
alexnet,3,1061,NaN,airplane,cat,c03,3621_con_dnn_c03_cat_10_n02125311_30364.JPEG
alexnet,3,1062,NaN,bear,cat,c03,3622_con_dnn_c03_cat_10_n02123159_4515.JPEG
alexnet,3,1063,NaN,bear,cat,c03,3623_con_dnn_c03_cat_10_n02123597_2742.JPEG
alexnet,3,1064,NaN,bear,cat,c03,3624_con_dnn_c03_cat_10_n02123597_10199.JPEG
alexnet,3,1065,NaN,airplane,cat,c03,3625_con_dnn_c03_cat_10_n02125311_16835.JPEG
alexnet,3,1066,NaN,bear,cat,c03,3626_con_dnn_c03_cat_10_n02123597_28555.JPEG
alexnet,3,1067,NaN,airplane,cat,c03,3627_con_dnn_c03_cat_10_n02123045_10510.JPEG
alexnet,3,1068,NaN,bear,cat,c03,3628_con_dnn_c03_cat_10_n02124075_6859.JPEG
alexnet,3,1069,NaN,airplane,cat,c03,3629_con_dnn_c03_cat_10_n02123045_1488.JPEG
alexnet,3,1070,NaN,airplane,cat,c03,3630_con_dnn_c03_cat_10_n02123394_6530.JPEG
alexnet,3,1071,NaN,bear,bottle,c03,3631_con_dnn_c03_bottle_10_n03937543_9020.JPEG
alexnet,3,1072,NaN,boat,bottle,c03,3632_con_dnn_c03_bottle_10_n02823428_3560.JPEG
alexnet,3,1073,NaN,airplane,bottle,c03,3633_con_dnn_c03_bottle_10_n03983396_24827.JPEG
alexnet,3,1074,NaN,bear,bottle,c03,3634_con_dnn_c03_bottle_10_n02823428_10287.JPEG
alexnet,3,1075,NaN,boat,bottle,c03,3635_con_dnn_c03_bottle_10_n03983396_4863.JPEG
alexnet,3,1076,NaN,bear,bottle,c03,3636_con_dnn_c03_bottle_10_n03937543_2373.JPEG
alexnet,3,1077,NaN,bear,bottle,c03,3637_con_dnn_c03_bottle_10_n04557648_16526.JPEG
alexnet,3,1078,NaN,airplane,bottle,c03,3638_con_dnn_c03_bottle_10_n04591713_14741.JPEG
alexnet,3,1079,NaN,airplane,bottle,c03,3639_con_dnn_c03_bottle_10_n02823428_6008.JPEG
alexnet,3,1080,NaN,bear,bottle,c03,3640_con_dnn_c03_bottle_10_n03983396_4455.JPEG
alexnet,3,1081,NaN,bear,truck,c03,3641_con_dnn_c03_truck_10_n03417042_5488.JPEG
alexnet,3,1082,NaN,bear,truck,c03,3642_con_dnn_c03_truck_10_n04467665_3411.JPEG
alexnet,3,1083,NaN,bear,truck,c03,3643_con_dnn_c03_truck_10_n03417042_5843.JPEG
alexnet,3,1084,NaN,airplane,truck,c03,3644_con_dnn_c03_truck_10_n03417042_15592.JPEG
alexnet,3,1085,NaN,bear,truck,c03,3645_con_dnn_c03_truck_10_n03417042_23802.JPEG
alexnet,3,1086,NaN,bear,truck,c03,3646_con_dnn_c03_truck_10_n03417042_19076.JPEG
alexnet,3,1087,NaN,airplane,truck,c03,3647_con_dnn_c03_truck_10_n03417042_2103.JPEG
alexnet,3,1088,NaN,bear,truck,c03,3648_con_dnn_c03_truck_10_n03417042_3107.JPEG
alexnet,3,1089,NaN,airplane,truck,c03,3649_con_dnn_c03_truck_10_n04467665_56938.JPEG
alexnet,3,1090,NaN,bear,truck,c03,3650_con_dnn_c03_truck_10_n04467665_6814.JPEG
alexnet,3,1091,NaN,bear,car,c03,3651_con_dnn_c03_car_10_n02814533_44906.JPEG
alexnet,3,1092,NaN,bear,car,c03,3652_con_dnn_c03_car_10_n02814533_80808.JPEG
alexnet,3,1093,NaN,bear,car,c03,3653_con_dnn_c03_car_10_n04285008_11410.JPEG
alexnet,3,1094,NaN,bear,car,c03,3654_con_dnn_c03_car_10_n03100240_2683.JPEG
alexnet,3,1095,NaN,bear,car,c03,3655_con_dnn_c03_car_10_n02814533_13802.JPEG
alexnet,3,1096,NaN,airplane,car,c03,3656_con_dnn_c03_car_10_n02814533_23648.JPEG
alexnet,3,1097,NaN,airplane,car,c03,3657_con_dnn_c03_car_10_n04285008_13223.JPEG
alexnet,3,1098,NaN,bear,car,c03,3658_con_dnn_c03_car_10_n03100240_310.JPEG
alexnet,3,1099,NaN,bear,car,c03,3659_con_dnn_c03_car_10_n02814533_61871.JPEG
alexnet,3,1100,NaN,bear,car,c03,3660_con_dnn_c03_car_10_n03100240_1520.JPEG
alexnet,3,1101,NaN,airplane,bird,c03,3661_con_dnn_c03_bird_10_n01582220_11588.JPEG
alexnet,3,1102,NaN,airplane,bird,c03,3662_con_dnn_c03_bird_10_n01833805_6222.JPEG
alexnet,3,1103,NaN,airplane,bird,c03,3663_con_dnn_c03_bird_10_n01560419_8178.JPEG
alexnet,3,1104,NaN,airplane,bird,c03,3664_con_dnn_c03_bird_10_n01534433_20048.JPEG
alexnet,3,1105,NaN,bear,bird,c03,3665_con_dnn_c03_bird_10_n02002724_93.JPEG
alexnet,3,1106,NaN,airplane,bird,c03,3666_con_dnn_c03_bird_10_n01532829_19191.JPEG
alexnet,3,1107,NaN,bird,bird,c03,3667_con_dnn_c03_bird_10_n01614925_7662.JPEG
alexnet,3,1108,NaN,bear,bird,c03,3668_con_dnn_c03_bird_10_n01819313_243.JPEG
alexnet,3,1109,NaN,bear,bird,c03,3669_con_dnn_c03_bird_10_n02056570_7304.JPEG
alexnet,3,1110,NaN,airplane,bird,c03,3670_con_dnn_c03_bird_10_n02051845_9277.JPEG
alexnet,3,1111,NaN,bear,dog,c03,3671_con_dnn_c03_dog_10_n02107142_2130.JPEG
alexnet,3,1112,NaN,airplane,dog,c03,3672_con_dnn_c03_dog_10_n02112350_3860.JPEG
alexnet,3,1113,NaN,bird,dog,c03,3673_con_dnn_c03_dog_10_n02106382_13276.JPEG
alexnet,3,1114,NaN,clock,dog,c03,3674_con_dnn_c03_dog_10_n02109047_2264.JPEG
alexnet,3,1115,NaN,airplane,dog,c03,3675_con_dnn_c03_dog_10_n02091032_5397.JPEG
alexnet,3,1116,NaN,airplane,dog,c03,3676_con_dnn_c03_dog_10_n02093991_2498.JPEG
alexnet,3,1117,NaN,bear,dog,c03,3677_con_dnn_c03_dog_10_n02111129_7678.JPEG
alexnet,3,1118,NaN,airplane,dog,c03,3678_con_dnn_c03_dog_10_n02094114_457.JPEG
alexnet,3,1119,NaN,bird,dog,c03,3679_con_dnn_c03_dog_10_n02107142_19568.JPEG
alexnet,3,1120,NaN,bear,dog,c03,3680_con_dnn_c03_dog_10_n02106030_13273.JPEG
alexnet,3,1121,NaN,airplane,knife,c01,3681_con_dnn_c01_knife_10_n03041632_14546.JPEG
alexnet,3,1122,NaN,airplane,knife,c01,3682_con_dnn_c01_knife_10_n03041632_39883.JPEG
alexnet,3,1123,NaN,airplane,knife,c01,3683_con_dnn_c01_knife_10_n03041632_3159.JPEG
alexnet,3,1124,NaN,airplane,knife,c01,3684_con_dnn_c01_knife_10_n03041632_33225.JPEG
alexnet,3,1125,NaN,airplane,knife,c01,3685_con_dnn_c01_knife_10_n03041632_12651.JPEG
alexnet,3,1126,NaN,airplane,knife,c01,3686_con_dnn_c01_knife_10_n03041632_19866.JPEG
alexnet,3,1127,NaN,airplane,knife,c01,3687_con_dnn_c01_knife_10_n03041632_11603.JPEG
alexnet,3,1128,NaN,airplane,knife,c01,3688_con_dnn_c01_knife_10_n03041632_87380.JPEG
alexnet,3,1129,NaN,airplane,knife,c01,3689_con_dnn_c01_knife_10_n03041632_30573.JPEG
alexnet,3,1130,NaN,airplane,knife,c01,3690_con_dnn_c01_knife_10_n03041632_9580.JPEG
alexnet,3,1131,NaN,airplane,keyboard,c01,3691_con_dnn_c01_keyboard_10_n03085013_785.JPEG
alexnet,3,1132,NaN,airplane,keyboard,c01,3692_con_dnn_c01_keyboard_10_n03085013_19065.JPEG
alexnet,3,1133,NaN,airplane,keyboard,c01,3693_con_dnn_c01_keyboard_10_n03085013_23008.JPEG
alexnet,3,1134,NaN,airplane,keyboard,c01,3694_con_dnn_c01_keyboard_10_n03085013_9156.JPEG
alexnet,3,1135,NaN,airplane,keyboard,c01,3695_con_dnn_c01_keyboard_10_n03085013_23904.JPEG
alexnet,3,1136,NaN,airplane,keyboard,c01,3696_con_dnn_c01_keyboard_10_n03085013_3804.JPEG
alexnet,3,1137,NaN,airplane,keyboard,c01,3697_con_dnn_c01_keyboard_10_n03085013_23503.JPEG
alexnet,3,1138,NaN,airplane,keyboard,c01,3698_con_dnn_c01_keyboard_10_n03085013_6160.JPEG
alexnet,3,1139,NaN,airplane,keyboard,c01,3699_con_dnn_c01_keyboard_10_n03085013_20792.JPEG
alexnet,3,1140,NaN,airplane,keyboard,c01,3700_con_dnn_c01_keyboard_10_n03085013_18966.JPEG
alexnet,3,1141,NaN,airplane,elephant,c01,3701_con_dnn_c01_elephant_10_n02504458_2399.JPEG
alexnet,3,1142,NaN,bird,elephant,c01,3702_con_dnn_c01_elephant_10_n02504458_10058.JPEG
alexnet,3,1143,NaN,airplane,elephant,c01,3703_con_dnn_c01_elephant_10_n02504458_2442.JPEG
alexnet,3,1144,NaN,airplane,elephant,c01,3704_con_dnn_c01_elephant_10_n02504013_11708.JPEG
alexnet,3,1145,NaN,airplane,elephant,c01,3705_con_dnn_c01_elephant_10_n02504013_3857.JPEG
alexnet,3,1146,NaN,airplane,elephant,c01,3706_con_dnn_c01_elephant_10_n02504458_1249.JPEG
alexnet,3,1147,NaN,airplane,elephant,c01,3707_con_dnn_c01_elephant_10_n02504013_1255.JPEG
alexnet,3,1148,NaN,airplane,elephant,c01,3708_con_dnn_c01_elephant_10_n02504458_677.JPEG
alexnet,3,1149,NaN,bird,elephant,c01,3709_con_dnn_c01_elephant_10_n02504458_6172.JPEG
alexnet,3,1150,NaN,airplane,elephant,c01,3710_con_dnn_c01_elephant_10_n02504458_5178.JPEG
alexnet,3,1151,NaN,airplane,bicycle,c01,3711_con_dnn_c01_bicycle_10_n03792782_1755.JPEG
alexnet,3,1152,NaN,airplane,bicycle,c01,3712_con_dnn_c01_bicycle_10_n02835271_24498.JPEG
alexnet,3,1153,NaN,airplane,bicycle,c01,3713_con_dnn_c01_bicycle_10_n02835271_10738.JPEG
alexnet,3,1154,NaN,airplane,bicycle,c01,3714_con_dnn_c01_bicycle_10_n02835271_3256.JPEG
alexnet,3,1155,NaN,airplane,bicycle,c01,3715_con_dnn_c01_bicycle_10_n03792782_12844.JPEG
alexnet,3,1156,NaN,airplane,bicycle,c01,3716_con_dnn_c01_bicycle_10_n03792782_10655.JPEG
alexnet,3,1157,NaN,airplane,bicycle,c01,3717_con_dnn_c01_bicycle_10_n03792782_6894.JPEG
alexnet,3,1158,NaN,airplane,bicycle,c01,3718_con_dnn_c01_bicycle_10_n03792782_3892.JPEG
alexnet,3,1159,NaN,airplane,bicycle,c01,3719_con_dnn_c01_bicycle_10_n03792782_774.JPEG
alexnet,3,1160,NaN,airplane,bicycle,c01,3720_con_dnn_c01_bicycle_10_n03792782_378.JPEG
alexnet,3,1161,NaN,airplane,airplane,c01,3721_con_dnn_c01_airplane_10_n02690373_5564.JPEG
alexnet,3,1162,NaN,airplane,airplane,c01,3722_con_dnn_c01_airplane_10_n02690373_7721.JPEG
alexnet,3,1163,NaN,airplane,airplane,c01,3723_con_dnn_c01_airplane_10_n02690373_4895.JPEG
alexnet,3,1164,NaN,airplane,airplane,c01,3724_con_dnn_c01_airplane_10_n02690373_4754.JPEG
alexnet,3,1165,NaN,airplane,airplane,c01,3725_con_dnn_c01_airplane_10_n02690373_1821.JPEG
alexnet,3,1166,NaN,airplane,airplane,c01,3726_con_dnn_c01_airplane_10_n02690373_4706.JPEG
alexnet,3,1167,NaN,airplane,airplane,c01,3727_con_dnn_c01_airplane_10_n02690373_6200.JPEG
alexnet,3,1168,NaN,airplane,airplane,c01,3728_con_dnn_c01_airplane_10_n02690373_1615.JPEG
alexnet,3,1169,NaN,airplane,airplane,c01,3729_con_dnn_c01_airplane_10_n02690373_20331.JPEG
alexnet,3,1170,NaN,airplane,airplane,c01,3730_con_dnn_c01_airplane_10_n02690373_1986.JPEG
alexnet,3,1171,NaN,airplane,clock,c01,3731_con_dnn_c01_clock_10_n02708093_3410.JPEG
alexnet,3,1172,NaN,airplane,clock,c01,3732_con_dnn_c01_clock_10_n03196217_4309.JPEG
alexnet,3,1173,NaN,airplane,clock,c01,3733_con_dnn_c01_clock_10_n04548280_15157.JPEG
alexnet,3,1174,NaN,airplane,clock,c01,3734_con_dnn_c01_clock_10_n02708093_8104.JPEG
alexnet,3,1175,NaN,airplane,clock,c01,3735_con_dnn_c01_clock_10_n02708093_3459.JPEG
alexnet,3,1176,NaN,airplane,clock,c01,3736_con_dnn_c01_clock_10_n04548280_1413.JPEG
alexnet,3,1177,NaN,airplane,clock,c01,3737_con_dnn_c01_clock_10_n03196217_13380.JPEG
alexnet,3,1178,NaN,airplane,clock,c01,3738_con_dnn_c01_clock_10_n03196217_11614.JPEG
alexnet,3,1179,NaN,airplane,clock,c01,3739_con_dnn_c01_clock_10_n03196217_10424.JPEG
alexnet,3,1180,NaN,bear,clock,c01,3740_con_dnn_c01_clock_10_n02708093_1002.JPEG
alexnet,3,1181,NaN,airplane,oven,c01,3741_con_dnn_c01_oven_10_n04111531_3098.JPEG
alexnet,3,1182,NaN,airplane,oven,c01,3742_con_dnn_c01_oven_10_n04111531_11470.JPEG
alexnet,3,1183,NaN,airplane,oven,c01,3743_con_dnn_c01_oven_10_n04111531_6533.JPEG
alexnet,3,1184,NaN,airplane,oven,c01,3744_con_dnn_c01_oven_10_n04111531_2715.JPEG
alexnet,3,1185,NaN,airplane,oven,c01,3745_con_dnn_c01_oven_10_n04111531_3886.JPEG
alexnet,3,1186,NaN,airplane,oven,c01,3746_con_dnn_c01_oven_10_n04111531_2758.JPEG
alexnet,3,1187,NaN,airplane,oven,c01,3747_con_dnn_c01_oven_10_n04111531_19576.JPEG
alexnet,3,1188,NaN,airplane,oven,c01,3748_con_dnn_c01_oven_10_n04111531_6810.JPEG
alexnet,3,1189,NaN,airplane,oven,c01,3749_con_dnn_c01_oven_10_n04111531_9781.JPEG
alexnet,3,1190,NaN,airplane,oven,c01,3750_con_dnn_c01_oven_10_n04111531_12408.JPEG
alexnet,3,1191,NaN,airplane,chair,c01,3751_con_dnn_c01_chair_10_n02791124_3411.JPEG
alexnet,3,1192,NaN,airplane,chair,c01,3752_con_dnn_c01_chair_10_n02791124_2610.JPEG
alexnet,3,1193,NaN,airplane,chair,c01,3753_con_dnn_c01_chair_10_n02791124_15850.JPEG
alexnet,3,1194,NaN,airplane,chair,c01,3754_con_dnn_c01_chair_10_n04429376_3278.JPEG
alexnet,3,1195,NaN,airplane,chair,c01,3755_con_dnn_c01_chair_10_n04099969_4541.JPEG
alexnet,3,1196,NaN,airplane,chair,c01,3756_con_dnn_c01_chair_10_n02791124_12475.JPEG
alexnet,3,1197,NaN,airplane,chair,c01,3757_con_dnn_c01_chair_10_n04099969_2127.JPEG
alexnet,3,1198,NaN,airplane,chair,c01,3758_con_dnn_c01_chair_10_n04429376_7393.JPEG
alexnet,3,1199,NaN,airplane,chair,c01,3759_con_dnn_c01_chair_10_n04429376_39754.JPEG
alexnet,3,1200,NaN,airplane,chair,c01,3760_con_dnn_c01_chair_10_n04099969_16773.JPEG
alexnet,3,1201,NaN,airplane,bear,c01,3761_con_dnn_c01_bear_10_n02132136_9684.JPEG
alexnet,3,1202,NaN,airplane,bear,c01,3762_con_dnn_c01_bear_10_n02133161_338.JPEG
alexnet,3,1203,NaN,airplane,bear,c01,3763_con_dnn_c01_bear_10_n02134418_4480.JPEG
alexnet,3,1204,NaN,airplane,bear,c01,3764_con_dnn_c01_bear_10_n02132136_4203.JPEG
alexnet,3,1205,NaN,airplane,bear,c01,3765_con_dnn_c01_bear_10_n02134418_2535.JPEG
alexnet,3,1206,NaN,airplane,bear,c01,3766_con_dnn_c01_bear_10_n02132136_11149.JPEG
alexnet,3,1207,NaN,airplane,bear,c01,3767_con_dnn_c01_bear_10_n02133161_4262.JPEG
alexnet,3,1208,NaN,airplane,bear,c01,3768_con_dnn_c01_bear_10_n02133161_9962.JPEG
alexnet,3,1209,NaN,airplane,bear,c01,3769_con_dnn_c01_bear_10_n02133161_4559.JPEG
alexnet,3,1210,NaN,airplane,bear,c01,3770_con_dnn_c01_bear_10_n02134084_2965.JPEG
alexnet,3,1211,NaN,airplane,boat,c01,3771_con_dnn_c01_boat_10_n03344393_7339.JPEG
alexnet,3,1212,NaN,airplane,boat,c01,3772_con_dnn_c01_boat_10_n03344393_8670.JPEG
alexnet,3,1213,NaN,airplane,boat,c01,3773_con_dnn_c01_boat_10_n03344393_10193.JPEG
