subj,session,trial,rt,object_response,category,condition,imagename
googlenet,2,1,NaN,knife,knife,c100,1281_con_dnn_c100_knife_10_n03041632_27832.JPEG
googlenet,2,2,NaN,knife,knife,c100,1282_con_dnn_c100_knife_10_n03041632_32785.JPEG
googlenet,2,3,NaN,knife,knife,c100,1283_con_dnn_c100_knife_10_n03041632_45090.JPEG
googlenet,2,4,NaN,knife,knife,c100,1284_con_dnn_c100_knife_10_n03041632_27709.JPEG
googlenet,2,5,NaN,knife,knife,c100,1285_con_dnn_c100_knife_10_n03041632_14224.JPEG
googlenet,2,6,NaN,knife,knife,c100,1286_con_dnn_c100_knife_10_n03041632_5162.JPEG
googlenet,2,7,NaN,knife,knife,c100,1287_con_dnn_c100_knife_10_n03041632_14132.JPEG
googlenet,2,8,NaN,oven,knife,c100,1288_con_dnn_c100_knife_10_n03041632_18748.JPEG
googlenet,2,9,NaN,keyboard,knife,c100,1289_con_dnn_c100_knife_10_n03041632_18311.JPEG
googlenet,2,10,NaN,knife,knife,c100,1290_con_dnn_c100_knife_10_n03041632_25331.JPEG
googlenet,2,11,NaN,keyboard,keyboard,c100,1291_con_dnn_c100_keyboard_10_n03085013_23916.JPEG
googlenet,2,12,NaN,keyboard,keyboard,c100,1292_con_dnn_c100_keyboard_10_n03085013_23629.JPEG
googlenet,2,13,NaN,keyboard,keyboard,c100,1293_con_dnn_c100_keyboard_10_n03085013_21472.JPEG
googlenet,2,14,NaN,keyboard,keyboard,c100,1294_con_dnn_c100_keyboard_10_n03085013_22698.JPEG
googlenet,2,15,NaN,keyboard,keyboard,c100,1295_con_dnn_c100_keyboard_10_n04505470_4362.JPEG
googlenet,2,16,NaN,keyboard,keyboard,c100,1296_con_dnn_c100_keyboard_10_n04505470_8754.JPEG
googlenet,2,17,NaN,keyboard,keyboard,c100,1297_con_dnn_c100_keyboard_10_n03085013_20957.JPEG
googlenet,2,18,NaN,keyboard,keyboard,c100,1298_con_dnn_c100_keyboard_10_n03085013_1483.JPEG
googlenet,2,19,NaN,keyboard,keyboard,c100,1299_con_dnn_c100_keyboard_10_n04505470_159.JPEG
googlenet,2,20,NaN,keyboard,keyboard,c100,1300_con_dnn_c100_keyboard_10_n04505470_6806.JPEG
googlenet,2,21,NaN,elephant,elephant,c100,1301_con_dnn_c100_elephant_10_n02504458_7660.JPEG
googlenet,2,22,NaN,elephant,elephant,c100,1302_con_dnn_c100_elephant_10_n02504013_2117.JPEG
googlenet,2,23,NaN,elephant,elephant,c100,1303_con_dnn_c100_elephant_10_n02504013_4337.JPEG
googlenet,2,24,NaN,elephant,elephant,c100,1304_con_dnn_c100_elephant_10_n02504013_8067.JPEG
googlenet,2,25,NaN,elephant,elephant,c100,1305_con_dnn_c100_elephant_10_n02504458_2517.JPEG
googlenet,2,26,NaN,elephant,elephant,c100,1306_con_dnn_c100_elephant_10_n02504458_4261.JPEG
googlenet,2,27,NaN,elephant,elephant,c100,1307_con_dnn_c100_elephant_10_n02504013_104.JPEG
googlenet,2,28,NaN,elephant,elephant,c100,1308_con_dnn_c100_elephant_10_n02504013_5179.JPEG
googlenet,2,29,NaN,elephant,elephant,c100,1309_con_dnn_c100_elephant_10_n02504458_1254.JPEG
googlenet,2,30,NaN,elephant,elephant,c100,1310_con_dnn_c100_elephant_10_n02504458_1521.JPEG
googlenet,2,31,NaN,bicycle,bicycle,c100,1311_con_dnn_c100_bicycle_10_n03792782_7643.JPEG
googlenet,2,32,NaN,bicycle,bicycle,c100,1312_con_dnn_c100_bicycle_10_n03792782_42978.JPEG
googlenet,2,33,NaN,bicycle,bicycle,c100,1313_con_dnn_c100_bicycle_10_n02835271_11842.JPEG
googlenet,2,34,NaN,bicycle,bicycle,c100,1314_con_dnn_c100_bicycle_10_n02835271_1055.JPEG
googlenet,2,35,NaN,truck,bicycle,c100,1315_con_dnn_c100_bicycle_10_n02835271_21287.JPEG
googlenet,2,36,NaN,bicycle,bicycle,c100,1316_con_dnn_c100_bicycle_10_n02835271_19935.JPEG
googlenet,2,37,NaN,bicycle,bicycle,c100,1317_con_dnn_c100_bicycle_10_n02835271_9055.JPEG
googlenet,2,38,NaN,bicycle,bicycle,c100,1318_con_dnn_c100_bicycle_10_n03792782_9692.JPEG
googlenet,2,39,NaN,bicycle,bicycle,c100,1319_con_dnn_c100_bicycle_10_n03792782_35200.JPEG
googlenet,2,40,NaN,bicycle,bicycle,c100,1320_con_dnn_c100_bicycle_10_n02835271_4619.JPEG
googlenet,2,41,NaN,airplane,airplane,c100,1321_con_dnn_c100_airplane_10_n02690373_12929.JPEG
googlenet,2,42,NaN,airplane,airplane,c100,1322_con_dnn_c100_airplane_10_n02690373_194.JPEG
googlenet,2,43,NaN,airplane,airplane,c100,1323_con_dnn_c100_airplane_10_n02690373_9.JPEG
googlenet,2,44,NaN,airplane,airplane,c100,1324_con_dnn_c100_airplane_10_n02690373_7489.JPEG
googlenet,2,45,NaN,airplane,airplane,c100,1325_con_dnn_c100_airplane_10_n02690373_379.JPEG
googlenet,2,46,NaN,airplane,airplane,c100,1326_con_dnn_c100_airplane_10_n02690373_6002.JPEG
googlenet,2,47,NaN,airplane,airplane,c100,1327_con_dnn_c100_airplane_10_n02690373_6872.JPEG
googlenet,2,48,NaN,airplane,airplane,c100,1328_con_dnn_c100_airplane_10_n02690373_7004.JPEG
googlenet,2,49,NaN,airplane,airplane,c100,1329_con_dnn_c100_airplane_10_n02690373_2882.JPEG
googlenet,2,50,NaN,airplane,airplane,c100,1330_con_dnn_c100_airplane_10_n02690373_1547.JPEG
googlenet,2,51,NaN,clock,clock,c100,1331_con_dnn_c100_clock_10_n02708093_6745.JPEG
googlenet,2,52,NaN,clock,clock,c100,1332_con_dnn_c100_clock_10_n02708093_2710.JPEG
googlenet,2,53,NaN,clock,clock,c100,1333_con_dnn_c100_clock_10_n02708093_3555.JPEG
googlenet,2,54,NaN,clock,clock,c100,1334_con_dnn_c100_clock_10_n02708093_8003.JPEG
googlenet,2,55,NaN,clock,clock,c100,1335_con_dnn_c100_clock_10_n04548280_2947.JPEG
googlenet,2,56,NaN,clock,clock,c100,1336_con_dnn_c100_clock_10_n02708093_6734.JPEG
googlenet,2,57,NaN,clock,clock,c100,1337_con_dnn_c100_clock_10_n04548280_3224.JPEG
googlenet,2,58,NaN,clock,clock,c100,1338_con_dnn_c100_clock_10_n04548280_4364.JPEG
googlenet,2,59,NaN,clock,clock,c100,1339_con_dnn_c100_clock_10_n04548280_4709.JPEG
googlenet,2,60,NaN,clock,clock,c100,1340_con_dnn_c100_clock_10_n04548280_5889.JPEG
googlenet,2,61,NaN,bird,oven,c100,1341_con_dnn_c100_oven_10_n04111531_7096.JPEG
googlenet,2,62,NaN,oven,oven,c100,1342_con_dnn_c100_oven_10_n04111531_6993.JPEG
googlenet,2,63,NaN,chair,oven,c100,1343_con_dnn_c100_oven_10_n04111531_164.JPEG
googlenet,2,64,NaN,oven,oven,c100,1344_con_dnn_c100_oven_10_n04111531_16463.JPEG
googlenet,2,65,NaN,oven,oven,c100,1345_con_dnn_c100_oven_10_n04111531_887.JPEG
googlenet,2,66,NaN,oven,oven,c100,1346_con_dnn_c100_oven_10_n04111531_2199.JPEG
googlenet,2,67,NaN,oven,oven,c100,1347_con_dnn_c100_oven_10_n04111531_14959.JPEG
googlenet,2,68,NaN,knife,oven,c100,1348_con_dnn_c100_oven_10_n04111531_14329.JPEG
googlenet,2,69,NaN,oven,oven,c100,1349_con_dnn_c100_oven_10_n04111531_23907.JPEG
googlenet,2,70,NaN,chair,oven,c100,1350_con_dnn_c100_oven_10_n04111531_1830.JPEG
googlenet,2,71,NaN,chair,chair,c100,1351_con_dnn_c100_chair_10_n04429376_5970.JPEG
googlenet,2,72,NaN,chair,chair,c100,1352_con_dnn_c100_chair_10_n02791124_2058.JPEG
googlenet,2,73,NaN,chair,chair,c100,1353_con_dnn_c100_chair_10_n04099969_875.JPEG
googlenet,2,74,NaN,chair,chair,c100,1354_con_dnn_c100_chair_10_n02791124_2856.JPEG
googlenet,2,75,NaN,chair,chair,c100,1355_con_dnn_c100_chair_10_n04429376_1838.JPEG
googlenet,2,76,NaN,chair,chair,c100,1356_con_dnn_c100_chair_10_n04099969_121.JPEG
googlenet,2,77,NaN,chair,chair,c100,1357_con_dnn_c100_chair_10_n04099969_31891.JPEG
googlenet,2,78,NaN,chair,chair,c100,1358_con_dnn_c100_chair_10_n04099969_2465.JPEG
googlenet,2,79,NaN,chair,chair,c100,1359_con_dnn_c100_chair_10_n04429376_3244.JPEG
googlenet,2,80,NaN,chair,chair,c100,1360_con_dnn_c100_chair_10_n04099969_8550.JPEG
googlenet,2,81,NaN,bear,bear,c100,1361_con_dnn_c100_bear_10_n02134418_1229.JPEG
googlenet,2,82,NaN,bear,bear,c100,1362_con_dnn_c100_bear_10_n02134084_3795.JPEG
googlenet,2,83,NaN,bear,bear,c100,1363_con_dnn_c100_bear_10_n02134418_6037.JPEG
googlenet,2,84,NaN,bear,bear,c100,1364_con_dnn_c100_bear_10_n02134084_7441.JPEG
googlenet,2,85,NaN,bear,bear,c100,1365_con_dnn_c100_bear_10_n02134084_6.JPEG
googlenet,2,86,NaN,bear,bear,c100,1366_con_dnn_c100_bear_10_n02134418_1084.JPEG
googlenet,2,87,NaN,bear,bear,c100,1367_con_dnn_c100_bear_10_n02134084_5108.JPEG
googlenet,2,88,NaN,dog,bear,c100,1368_con_dnn_c100_bear_10_n02133161_2123.JPEG
googlenet,2,89,NaN,bear,bear,c100,1369_con_dnn_c100_bear_10_n02134418_1651.JPEG
googlenet,2,90,NaN,bear,bear,c100,1370_con_dnn_c100_bear_10_n02134084_4590.JPEG
googlenet,2,91,NaN,boat,boat,c100,1371_con_dnn_c100_boat_10_n03662601_8144.JPEG
googlenet,2,92,NaN,boat,boat,c100,1372_con_dnn_c100_boat_10_n02951358_11325.JPEG
googlenet,2,93,NaN,boat,boat,c100,1373_con_dnn_c100_boat_10_n03344393_2785.JPEG
googlenet,2,94,NaN,boat,boat,c100,1374_con_dnn_c100_boat_10_n03344393_8579.JPEG
googlenet,2,95,NaN,boat,boat,c100,1375_con_dnn_c100_boat_10_n03662601_16276.JPEG
googlenet,2,96,NaN,boat,boat,c100,1376_con_dnn_c100_boat_10_n02951358_3471.JPEG
googlenet,2,97,NaN,boat,boat,c100,1377_con_dnn_c100_boat_10_n02951358_13202.JPEG
googlenet,2,98,NaN,boat,boat,c100,1378_con_dnn_c100_boat_10_n02951358_31775.JPEG
googlenet,2,99,NaN,boat,boat,c100,1379_con_dnn_c100_boat_10_n04273569_18406.JPEG
googlenet,2,100,NaN,boat,boat,c100,1380_con_dnn_c100_boat_10_n03344393_2875.JPEG
googlenet,2,101,NaN,cat,cat,c100,1381_con_dnn_c100_cat_10_n02123394_2354.JPEG
googlenet,2,102,NaN,cat,cat,c100,1382_con_dnn_c100_cat_10_n02123159_6584.JPEG
googlenet,2,103,NaN,cat,cat,c100,1383_con_dnn_c100_cat_10_n02123159_6954.JPEG
googlenet,2,104,NaN,cat,cat,c100,1384_con_dnn_c100_cat_10_n02123045_3078.JPEG
googlenet,2,105,NaN,cat,cat,c100,1385_con_dnn_c100_cat_10_n02123394_4299.JPEG
googlenet,2,106,NaN,cat,cat,c100,1386_con_dnn_c100_cat_10_n02123394_2431.JPEG
googlenet,2,107,NaN,cat,cat,c100,1387_con_dnn_c100_cat_10_n02125311_11120.JPEG
googlenet,2,108,NaN,cat,cat,c100,1388_con_dnn_c100_cat_10_n02123597_10707.JPEG
googlenet,2,109,NaN,cat,cat,c100,1389_con_dnn_c100_cat_10_n02123045_13309.JPEG
googlenet,2,110,NaN,bird,cat,c100,1390_con_dnn_c100_cat_10_n02123394_1724.JPEG
googlenet,2,111,NaN,bottle,bottle,c100,1391_con_dnn_c100_bottle_10_n03983396_2242.JPEG
googlenet,2,112,NaN,bottle,bottle,c100,1392_con_dnn_c100_bottle_10_n03983396_2678.JPEG
googlenet,2,113,NaN,dog,bottle,c100,1393_con_dnn_c100_bottle_10_n04560804_15679.JPEG
googlenet,2,114,NaN,bottle,bottle,c100,1394_con_dnn_c100_bottle_10_n04560804_2176.JPEG
googlenet,2,115,NaN,bottle,bottle,c100,1395_con_dnn_c100_bottle_10_n02823428_3505.JPEG
googlenet,2,116,NaN,bottle,bottle,c100,1396_con_dnn_c100_bottle_10_n04557648_3529.JPEG
googlenet,2,117,NaN,bottle,bottle,c100,1397_con_dnn_c100_bottle_10_n04591713_3402.JPEG
googlenet,2,118,NaN,bottle,bottle,c100,1398_con_dnn_c100_bottle_10_n03937543_339.JPEG
googlenet,2,119,NaN,bottle,bottle,c100,1399_con_dnn_c100_bottle_10_n03937543_7676.JPEG
googlenet,2,120,NaN,bottle,bottle,c100,1400_con_dnn_c100_bottle_10_n02823428_1562.JPEG
googlenet,2,121,NaN,truck,truck,c100,1401_con_dnn_c100_truck_10_n03796401_17723.JPEG
googlenet,2,122,NaN,truck,truck,c100,1402_con_dnn_c100_truck_10_n04467665_64402.JPEG
googlenet,2,123,NaN,truck,truck,c100,1403_con_dnn_c100_truck_10_n03796401_3623.JPEG
googlenet,2,124,NaN,bottle,truck,c100,1404_con_dnn_c100_truck_10_n03796401_15673.JPEG
googlenet,2,125,NaN,truck,truck,c100,1405_con_dnn_c100_truck_10_n03417042_22395.JPEG
googlenet,2,126,NaN,truck,truck,c100,1406_con_dnn_c100_truck_10_n04467665_29380.JPEG
googlenet,2,127,NaN,truck,truck,c100,1407_con_dnn_c100_truck_10_n03796401_4121.JPEG
googlenet,2,128,NaN,truck,truck,c100,1408_con_dnn_c100_truck_10_n03796401_492.JPEG
googlenet,2,129,NaN,truck,truck,c100,1409_con_dnn_c100_truck_10_n03417042_3748.JPEG
googlenet,2,130,NaN,truck,truck,c100,1410_con_dnn_c100_truck_10_n03417042_5576.JPEG
googlenet,2,131,NaN,car,car,c100,1411_con_dnn_c100_car_10_n02814533_1015.JPEG
googlenet,2,132,NaN,car,car,c100,1412_con_dnn_c100_car_10_n02814533_91758.JPEG
googlenet,2,133,NaN,car,car,c100,1413_con_dnn_c100_car_10_n04285008_4782.JPEG
googlenet,2,134,NaN,car,car,c100,1414_con_dnn_c100_car_10_n03100240_5492.JPEG
googlenet,2,135,NaN,car,car,c100,1415_con_dnn_c100_car_10_n02814533_76388.JPEG
googlenet,2,136,NaN,car,car,c100,1416_con_dnn_c100_car_10_n02814533_1955.JPEG
googlenet,2,137,NaN,car,car,c100,1417_con_dnn_c100_car_10_n03100240_8591.JPEG
googlenet,2,138,NaN,car,car,c100,1418_con_dnn_c100_car_10_n04285008_876.JPEG
googlenet,2,139,NaN,car,car,c100,1419_con_dnn_c100_car_10_n02814533_1292.JPEG
googlenet,2,140,NaN,car,car,c100,1420_con_dnn_c100_car_10_n03100240_16939.JPEG
googlenet,2,141,NaN,bird,bird,c100,1421_con_dnn_c100_bird_10_n01828970_1023.JPEG
googlenet,2,142,NaN,bird,bird,c100,1422_con_dnn_c100_bird_10_n02027492_6682.JPEG
googlenet,2,143,NaN,bird,bird,c100,1423_con_dnn_c100_bird_10_n01820546_6677.JPEG
googlenet,2,144,NaN,bird,bird,c100,1424_con_dnn_c100_bird_10_n01558993_10093.JPEG
googlenet,2,145,NaN,dog,bird,c100,1425_con_dnn_c100_bird_10_n01534433_14730.JPEG
googlenet,2,146,NaN,bird,bird,c100,1426_con_dnn_c100_bird_10_n02033041_4675.JPEG
googlenet,2,147,NaN,bird,bird,c100,1427_con_dnn_c100_bird_10_n01530575_6859.JPEG
googlenet,2,148,NaN,bird,bird,c100,1428_con_dnn_c100_bird_10_n02018795_2870.JPEG
googlenet,2,149,NaN,bird,bird,c100,1429_con_dnn_c100_bird_10_n01560419_6574.JPEG
googlenet,2,150,NaN,bird,bird,c100,1430_con_dnn_c100_bird_10_n01855032_5969.JPEG
googlenet,2,151,NaN,dog,dog,c100,1431_con_dnn_c100_dog_10_n02093859_1230.JPEG
googlenet,2,152,NaN,dog,dog,c100,1432_con_dnn_c100_dog_10_n02106166_2761.JPEG
googlenet,2,153,NaN,dog,dog,c100,1433_con_dnn_c100_dog_10_n02085936_19031.JPEG
googlenet,2,154,NaN,dog,dog,c100,1434_con_dnn_c100_dog_10_n02089867_6513.JPEG
googlenet,2,155,NaN,dog,dog,c100,1435_con_dnn_c100_dog_10_n02093754_6343.JPEG
googlenet,2,156,NaN,dog,dog,c100,1436_con_dnn_c100_dog_10_n02088238_13424.JPEG
googlenet,2,157,NaN,dog,dog,c100,1437_con_dnn_c100_dog_10_n02099601_2816.JPEG
googlenet,2,158,NaN,dog,dog,c100,1438_con_dnn_c100_dog_10_n02088364_10950.JPEG
googlenet,2,159,NaN,dog,dog,c100,1439_con_dnn_c100_dog_10_n02085936_5089.JPEG
googlenet,2,160,NaN,dog,dog,c100,1440_con_dnn_c100_dog_10_n02106550_12481.JPEG
googlenet,2,161,NaN,knife,knife,c50,1441_con_dnn_c50_knife_10_n03041632_39840.JPEG
googlenet,2,162,NaN,bottle,knife,c50,1442_con_dnn_c50_knife_10_n03041632_34676.JPEG
googlenet,2,163,NaN,knife,knife,c50,1443_con_dnn_c50_knife_10_n03041632_29940.JPEG
googlenet,2,164,NaN,boat,knife,c50,1444_con_dnn_c50_knife_10_n03041632_40283.JPEG
googlenet,2,165,NaN,knife,knife,c50,1445_con_dnn_c50_knife_10_n03041632_3516.JPEG
googlenet,2,166,NaN,knife,knife,c50,1446_con_dnn_c50_knife_10_n03041632_3079.JPEG
googlenet,2,167,NaN,knife,knife,c50,1447_con_dnn_c50_knife_10_n03041632_29037.JPEG
googlenet,2,168,NaN,knife,knife,c50,1448_con_dnn_c50_knife_10_n03041632_23548.JPEG
googlenet,2,169,NaN,knife,knife,c50,1449_con_dnn_c50_knife_10_n03041632_21345.JPEG
googlenet,2,170,NaN,knife,knife,c50,1450_con_dnn_c50_knife_10_n03041632_23667.JPEG
googlenet,2,171,NaN,keyboard,keyboard,c50,1451_con_dnn_c50_keyboard_10_n03085013_6295.JPEG
googlenet,2,172,NaN,keyboard,keyboard,c50,1452_con_dnn_c50_keyboard_10_n03085013_24472.JPEG
googlenet,2,173,NaN,keyboard,keyboard,c50,1453_con_dnn_c50_keyboard_10_n03085013_1200.JPEG
googlenet,2,174,NaN,keyboard,keyboard,c50,1454_con_dnn_c50_keyboard_10_n03085013_23867.JPEG
googlenet,2,175,NaN,chair,keyboard,c50,1455_con_dnn_c50_keyboard_10_n03085013_24149.JPEG
googlenet,2,176,NaN,keyboard,keyboard,c50,1456_con_dnn_c50_keyboard_10_n04505470_5050.JPEG
googlenet,2,177,NaN,keyboard,keyboard,c50,1457_con_dnn_c50_keyboard_10_n03085013_19618.JPEG
googlenet,2,178,NaN,knife,keyboard,c50,1458_con_dnn_c50_keyboard_10_n03085013_28854.JPEG
googlenet,2,179,NaN,keyboard,keyboard,c50,1459_con_dnn_c50_keyboard_10_n04505470_10242.JPEG
googlenet,2,180,NaN,keyboard,keyboard,c50,1460_con_dnn_c50_keyboard_10_n04505470_5103.JPEG
googlenet,2,181,NaN,elephant,elephant,c50,1461_con_dnn_c50_elephant_10_n02504458_1211.JPEG
googlenet,2,182,NaN,elephant,elephant,c50,1462_con_dnn_c50_elephant_10_n02504013_6141.JPEG
googlenet,2,183,NaN,dog,elephant,c50,1463_con_dnn_c50_elephant_10_n02504458_3988.JPEG
googlenet,2,184,NaN,elephant,elephant,c50,1464_con_dnn_c50_elephant_10_n02504013_10920.JPEG
googlenet,2,185,NaN,elephant,elephant,c50,1465_con_dnn_c50_elephant_10_n02504013_10990.JPEG
googlenet,2,186,NaN,elephant,elephant,c50,1466_con_dnn_c50_elephant_10_n02504458_798.JPEG
googlenet,2,187,NaN,elephant,elephant,c50,1467_con_dnn_c50_elephant_10_n02504458_7966.JPEG
googlenet,2,188,NaN,elephant,elephant,c50,1468_con_dnn_c50_elephant_10_n02504458_3209.JPEG
googlenet,2,189,NaN,elephant,elephant,c50,1469_con_dnn_c50_elephant_10_n02504013_8638.JPEG
googlenet,2,190,NaN,elephant,elephant,c50,1470_con_dnn_c50_elephant_10_n02504013_10351.JPEG
googlenet,2,191,NaN,bicycle,bicycle,c50,1471_con_dnn_c50_bicycle_10_n03792782_10325.JPEG
googlenet,2,192,NaN,bicycle,bicycle,c50,1472_con_dnn_c50_bicycle_10_n02835271_23286.JPEG
googlenet,2,193,NaN,bicycle,bicycle,c50,1473_con_dnn_c50_bicycle_10_n02835271_10834.JPEG
googlenet,2,194,NaN,bicycle,bicycle,c50,1474_con_dnn_c50_bicycle_10_n03792782_13950.JPEG
googlenet,2,195,NaN,bicycle,bicycle,c50,1475_con_dnn_c50_bicycle_10_n03792782_13281.JPEG
googlenet,2,196,NaN,bicycle,bicycle,c50,1476_con_dnn_c50_bicycle_10_n02835271_21672.JPEG
googlenet,2,197,NaN,bicycle,bicycle,c50,1477_con_dnn_c50_bicycle_10_n03792782_25019.JPEG
googlenet,2,198,NaN,bicycle,bicycle,c50,1478_con_dnn_c50_bicycle_10_n03792782_15435.JPEG
googlenet,2,199,NaN,bicycle,bicycle,c50,1479_con_dnn_c50_bicycle_10_n03792782_15581.JPEG
googlenet,2,200,NaN,bicycle,bicycle,c50,1480_con_dnn_c50_bicycle_10_n02835271_14070.JPEG
googlenet,2,201,NaN,airplane,airplane,c50,1481_con_dnn_c50_airplane_10_n02690373_20326.JPEG
googlenet,2,202,NaN,airplane,airplane,c50,1482_con_dnn_c50_airplane_10_n02690373_19133.JPEG
googlenet,2,203,NaN,airplane,airplane,c50,1483_con_dnn_c50_airplane_10_n02690373_2564.JPEG
googlenet,2,204,NaN,airplane,airplane,c50,1484_con_dnn_c50_airplane_10_n02690373_8789.JPEG
googlenet,2,205,NaN,airplane,airplane,c50,1485_con_dnn_c50_airplane_10_n02690373_20071.JPEG
googlenet,2,206,NaN,airplane,airplane,c50,1486_con_dnn_c50_airplane_10_n02690373_4188.JPEG
googlenet,2,207,NaN,bottle,airplane,c50,1487_con_dnn_c50_airplane_10_n02690373_6567.JPEG
googlenet,2,208,NaN,airplane,airplane,c50,1488_con_dnn_c50_airplane_10_n02690373_1751.JPEG
googlenet,2,209,NaN,airplane,airplane,c50,1489_con_dnn_c50_airplane_10_n02690373_1441.JPEG
googlenet,2,210,NaN,airplane,airplane,c50,1490_con_dnn_c50_airplane_10_n02690373_3100.JPEG
googlenet,2,211,NaN,chair,clock,c50,1491_con_dnn_c50_clock_10_n04548280_1314.JPEG
googlenet,2,212,NaN,clock,clock,c50,1492_con_dnn_c50_clock_10_n04548280_4143.JPEG
googlenet,2,213,NaN,clock,clock,c50,1493_con_dnn_c50_clock_10_n04548280_17723.JPEG
googlenet,2,214,NaN,clock,clock,c50,1494_con_dnn_c50_clock_10_n03196217_6094.JPEG
googlenet,2,215,NaN,clock,clock,c50,1495_con_dnn_c50_clock_10_n03196217_10717.JPEG
googlenet,2,216,NaN,clock,clock,c50,1496_con_dnn_c50_clock_10_n03196217_6320.JPEG
googlenet,2,217,NaN,clock,clock,c50,1497_con_dnn_c50_clock_10_n03196217_3986.JPEG
googlenet,2,218,NaN,keyboard,clock,c50,1498_con_dnn_c50_clock_10_n03196217_1423.JPEG
googlenet,2,219,NaN,clock,clock,c50,1499_con_dnn_c50_clock_10_n03196217_6217.JPEG
googlenet,2,220,NaN,clock,clock,c50,1500_con_dnn_c50_clock_10_n04548280_8535.JPEG
googlenet,2,221,NaN,oven,oven,c50,1501_con_dnn_c50_oven_10_n04111531_22517.JPEG
googlenet,2,222,NaN,oven,oven,c50,1502_con_dnn_c50_oven_10_n04111531_4549.JPEG
googlenet,2,223,NaN,oven,oven,c50,1503_con_dnn_c50_oven_10_n04111531_14279.JPEG
googlenet,2,224,NaN,bird,oven,c50,1504_con_dnn_c50_oven_10_n04111531_15743.JPEG
googlenet,2,225,NaN,oven,oven,c50,1505_con_dnn_c50_oven_10_n04111531_5965.JPEG
googlenet,2,226,NaN,oven,oven,c50,1506_con_dnn_c50_oven_10_n04111531_2006.JPEG
googlenet,2,227,NaN,oven,oven,c50,1507_con_dnn_c50_oven_10_n04111531_6024.JPEG
googlenet,2,228,NaN,oven,oven,c50,1508_con_dnn_c50_oven_10_n04111531_14178.JPEG
googlenet,2,229,NaN,chair,oven,c50,1509_con_dnn_c50_oven_10_n04111531_547.JPEG
googlenet,2,230,NaN,oven,oven,c50,1510_con_dnn_c50_oven_10_n04111531_8414.JPEG
googlenet,2,231,NaN,chair,chair,c50,1511_con_dnn_c50_chair_10_n03376595_16911.JPEG
googlenet,2,232,NaN,chair,chair,c50,1512_con_dnn_c50_chair_10_n04429376_8881.JPEG
googlenet,2,233,NaN,chair,chair,c50,1513_con_dnn_c50_chair_10_n04429376_5767.JPEG
googlenet,2,234,NaN,chair,chair,c50,1514_con_dnn_c50_chair_10_n04099969_36418.JPEG
googlenet,2,235,NaN,chair,chair,c50,1515_con_dnn_c50_chair_10_n03376595_6864.JPEG
googlenet,2,236,NaN,bottle,chair,c50,1516_con_dnn_c50_chair_10_n02791124_5467.JPEG
googlenet,2,237,NaN,chair,chair,c50,1517_con_dnn_c50_chair_10_n02791124_70.JPEG
googlenet,2,238,NaN,chair,chair,c50,1518_con_dnn_c50_chair_10_n04429376_26877.JPEG
googlenet,2,239,NaN,chair,chair,c50,1519_con_dnn_c50_chair_10_n02791124_13704.JPEG
googlenet,2,240,NaN,chair,chair,c50,1520_con_dnn_c50_chair_10_n02791124_3331.JPEG
googlenet,2,241,NaN,bear,bear,c50,1521_con_dnn_c50_bear_10_n02133161_14605.JPEG
googlenet,2,242,NaN,bear,bear,c50,1522_con_dnn_c50_bear_10_n02134084_8198.JPEG
googlenet,2,243,NaN,bear,bear,c50,1523_con_dnn_c50_bear_10_n02132136_2540.JPEG
googlenet,2,244,NaN,bear,bear,c50,1524_con_dnn_c50_bear_10_n02133161_6335.JPEG
googlenet,2,245,NaN,bear,bear,c50,1525_con_dnn_c50_bear_10_n02133161_12452.JPEG
googlenet,2,246,NaN,bear,bear,c50,1526_con_dnn_c50_bear_10_n02134418_6131.JPEG
googlenet,2,247,NaN,bear,bear,c50,1527_con_dnn_c50_bear_10_n02132136_6999.JPEG
googlenet,2,248,NaN,bear,bear,c50,1528_con_dnn_c50_bear_10_n02132136_1183.JPEG
googlenet,2,249,NaN,bear,bear,c50,1529_con_dnn_c50_bear_10_n02134418_3230.JPEG
googlenet,2,250,NaN,cat,bear,c50,1530_con_dnn_c50_bear_10_n02133161_14361.JPEG
googlenet,2,251,NaN,bottle,boat,c50,1531_con_dnn_c50_boat_10_n03344393_9661.JPEG
googlenet,2,252,NaN,boat,boat,c50,1532_con_dnn_c50_boat_10_n04273569_16960.JPEG
googlenet,2,253,NaN,boat,boat,c50,1533_con_dnn_c50_boat_10_n04273569_3814.JPEG
googlenet,2,254,NaN,clock,boat,c50,1534_con_dnn_c50_boat_10_n03344393_2639.JPEG
googlenet,2,255,NaN,boat,boat,c50,1535_con_dnn_c50_boat_10_n03344393_4140.JPEG
googlenet,2,256,NaN,boat,boat,c50,1536_con_dnn_c50_boat_10_n03662601_11920.JPEG
googlenet,2,257,NaN,boat,boat,c50,1537_con_dnn_c50_boat_10_n04612504_7566.JPEG
googlenet,2,258,NaN,boat,boat,c50,1538_con_dnn_c50_boat_10_n03344393_4888.JPEG
googlenet,2,259,NaN,boat,boat,c50,1539_con_dnn_c50_boat_10_n04273569_15669.JPEG
googlenet,2,260,NaN,boat,boat,c50,1540_con_dnn_c50_boat_10_n04612504_8367.JPEG
googlenet,2,261,NaN,cat,cat,c50,1541_con_dnn_c50_cat_10_n02124075_14242.JPEG
googlenet,2,262,NaN,cat,cat,c50,1542_con_dnn_c50_cat_10_n02124075_12590.JPEG
googlenet,2,263,NaN,dog,cat,c50,1543_con_dnn_c50_cat_10_n02123597_2842.JPEG
googlenet,2,264,NaN,cat,cat,c50,1544_con_dnn_c50_cat_10_n02123159_6294.JPEG
googlenet,2,265,NaN,cat,cat,c50,1545_con_dnn_c50_cat_10_n02123045_12629.JPEG
googlenet,2,266,NaN,dog,cat,c50,1546_con_dnn_c50_cat_10_n02125311_20423.JPEG
googlenet,2,267,NaN,dog,cat,c50,1547_con_dnn_c50_cat_10_n02123597_4738.JPEG
googlenet,2,268,NaN,cat,cat,c50,1548_con_dnn_c50_cat_10_n02125311_8754.JPEG
googlenet,2,269,NaN,cat,cat,c50,1549_con_dnn_c50_cat_10_n02123597_7138.JPEG
googlenet,2,270,NaN,dog,cat,c50,1550_con_dnn_c50_cat_10_n02123159_4084.JPEG
googlenet,2,271,NaN,bottle,bottle,c50,1551_con_dnn_c50_bottle_10_n02823428_5932.JPEG
googlenet,2,272,NaN,bottle,bottle,c50,1552_con_dnn_c50_bottle_10_n02823428_8373.JPEG
googlenet,2,273,NaN,bottle,bottle,c50,1553_con_dnn_c50_bottle_10_n03983396_4314.JPEG
googlenet,2,274,NaN,dog,bottle,c50,1554_con_dnn_c50_bottle_10_n04560804_7346.JPEG
googlenet,2,275,NaN,bottle,bottle,c50,1555_con_dnn_c50_bottle_10_n04560804_10258.JPEG
googlenet,2,276,NaN,bottle,bottle,c50,1556_con_dnn_c50_bottle_10_n04560804_15452.JPEG
googlenet,2,277,NaN,bottle,bottle,c50,1557_con_dnn_c50_bottle_10_n04591713_4865.JPEG
googlenet,2,278,NaN,bottle,bottle,c50,1558_con_dnn_c50_bottle_10_n04557648_10678.JPEG
googlenet,2,279,NaN,bottle,bottle,c50,1559_con_dnn_c50_bottle_10_n03937543_1277.JPEG
googlenet,2,280,NaN,bottle,bottle,c50,1560_con_dnn_c50_bottle_10_n02823428_4507.JPEG
googlenet,2,281,NaN,truck,truck,c50,1561_con_dnn_c50_truck_10_n03796401_5729.JPEG
googlenet,2,282,NaN,truck,truck,c50,1562_con_dnn_c50_truck_10_n04467665_3458.JPEG
googlenet,2,283,NaN,truck,truck,c50,1563_con_dnn_c50_truck_10_n04467665_45326.JPEG
googlenet,2,284,NaN,truck,truck,c50,1564_con_dnn_c50_truck_10_n04467665_3714.JPEG
googlenet,2,285,NaN,truck,truck,c50,1565_con_dnn_c50_truck_10_n04467665_32090.JPEG
googlenet,2,286,NaN,truck,truck,c50,1566_con_dnn_c50_truck_10_n04467665_3524.JPEG
googlenet,2,287,NaN,truck,truck,c50,1567_con_dnn_c50_truck_10_n03417042_21705.JPEG
googlenet,2,288,NaN,truck,truck,c50,1568_con_dnn_c50_truck_10_n03417042_2671.JPEG
googlenet,2,289,NaN,truck,truck,c50,1569_con_dnn_c50_truck_10_n04467665_23096.JPEG
googlenet,2,290,NaN,truck,truck,c50,1570_con_dnn_c50_truck_10_n03417042_6216.JPEG
googlenet,2,291,NaN,car,car,c50,1571_con_dnn_c50_car_10_n03100240_15676.JPEG
googlenet,2,292,NaN,car,car,c50,1572_con_dnn_c50_car_10_n02814533_91536.JPEG
googlenet,2,293,NaN,car,car,c50,1573_con_dnn_c50_car_10_n04285008_5699.JPEG
googlenet,2,294,NaN,car,car,c50,1574_con_dnn_c50_car_10_n04285008_5114.JPEG
googlenet,2,295,NaN,car,car,c50,1575_con_dnn_c50_car_10_n03100240_8453.JPEG
googlenet,2,296,NaN,boat,car,c50,1576_con_dnn_c50_car_10_n02814533_80304.JPEG
googlenet,2,297,NaN,car,car,c50,1577_con_dnn_c50_car_10_n04285008_3269.JPEG
googlenet,2,298,NaN,truck,car,c50,1578_con_dnn_c50_car_10_n04285008_5825.JPEG
googlenet,2,299,NaN,car,car,c50,1579_con_dnn_c50_car_10_n03100240_5059.JPEG
googlenet,2,300,NaN,car,car,c50,1580_con_dnn_c50_car_10_n02814533_18213.JPEG
googlenet,2,301,NaN,bird,bird,c50,1581_con_dnn_c50_bird_10_n01817953_1165.JPEG
googlenet,2,302,NaN,bird,bird,c50,1582_con_dnn_c50_bird_10_n01817953_1276.JPEG
googlenet,2,303,NaN,bird,bird,c50,1583_con_dnn_c50_bird_10_n01537544_3132.JPEG
googlenet,2,304,NaN,bird,bird,c50,1584_con_dnn_c50_bird_10_n01614925_10661.JPEG
googlenet,2,305,NaN,bird,bird,c50,1585_con_dnn_c50_bird_10_n01818515_13272.JPEG
googlenet,2,306,NaN,bird,bird,c50,1586_con_dnn_c50_bird_10_n01843383_4911.JPEG
googlenet,2,307,NaN,bird,bird,c50,1587_con_dnn_c50_bird_10_n01560419_10462.JPEG
googlenet,2,308,NaN,bird,bird,c50,1588_con_dnn_c50_bird_10_n01820546_1147.JPEG
googlenet,2,309,NaN,bird,bird,c50,1589_con_dnn_c50_bird_10_n02002724_6117.JPEG
googlenet,2,310,NaN,bird,bird,c50,1590_con_dnn_c50_bird_10_n02051845_14586.JPEG
googlenet,2,311,NaN,dog,dog,c50,1591_con_dnn_c50_dog_10_n02086240_4958.JPEG
googlenet,2,312,NaN,dog,dog,c50,1592_con_dnn_c50_dog_10_n02111129_1235.JPEG
googlenet,2,313,NaN,dog,dog,c50,1593_con_dnn_c50_dog_10_n02111500_8869.JPEG
googlenet,2,314,NaN,dog,dog,c50,1594_con_dnn_c50_dog_10_n02086079_19287.JPEG
googlenet,2,315,NaN,dog,dog,c50,1595_con_dnn_c50_dog_10_n02105162_5684.JPEG
googlenet,2,316,NaN,dog,dog,c50,1596_con_dnn_c50_dog_10_n02106166_1423.JPEG
googlenet,2,317,NaN,dog,dog,c50,1597_con_dnn_c50_dog_10_n02110627_16609.JPEG
googlenet,2,318,NaN,dog,dog,c50,1598_con_dnn_c50_dog_10_n02106166_18650.JPEG
googlenet,2,319,NaN,dog,dog,c50,1599_con_dnn_c50_dog_10_n02102177_839.JPEG
googlenet,2,320,NaN,dog,dog,c50,1600_con_dnn_c50_dog_10_n02095314_4279.JPEG
googlenet,2,321,NaN,bottle,knife,c30,1601_con_dnn_c30_knife_10_n03041632_21560.JPEG
googlenet,2,322,NaN,keyboard,knife,c30,1602_con_dnn_c30_knife_10_n03041632_28658.JPEG
googlenet,2,323,NaN,chair,knife,c30,1603_con_dnn_c30_knife_10_n03041632_23546.JPEG
googlenet,2,324,NaN,knife,knife,c30,1604_con_dnn_c30_knife_10_n03041632_86251.JPEG
googlenet,2,325,NaN,knife,knife,c30,1605_con_dnn_c30_knife_10_n03041632_16172.JPEG
googlenet,2,326,NaN,knife,knife,c30,1606_con_dnn_c30_knife_10_n03041632_3210.JPEG
googlenet,2,327,NaN,boat,knife,c30,1607_con_dnn_c30_knife_10_n03041632_44238.JPEG
googlenet,2,328,NaN,bottle,knife,c30,1608_con_dnn_c30_knife_10_n03041632_53874.JPEG
googlenet,2,329,NaN,knife,knife,c30,1609_con_dnn_c30_knife_10_n03041632_19571.JPEG
googlenet,2,330,NaN,bottle,knife,c30,1610_con_dnn_c30_knife_10_n03041632_42472.JPEG
googlenet,2,331,NaN,keyboard,keyboard,c30,1611_con_dnn_c30_keyboard_10_n03085013_12164.JPEG
googlenet,2,332,NaN,keyboard,keyboard,c30,1612_con_dnn_c30_keyboard_10_n03085013_23791.JPEG
googlenet,2,333,NaN,keyboard,keyboard,c30,1613_con_dnn_c30_keyboard_10_n04505470_2390.JPEG
googlenet,2,334,NaN,keyboard,keyboard,c30,1614_con_dnn_c30_keyboard_10_n03085013_3607.JPEG
googlenet,2,335,NaN,keyboard,keyboard,c30,1615_con_dnn_c30_keyboard_10_n04505470_805.JPEG
googlenet,2,336,NaN,keyboard,keyboard,c30,1616_con_dnn_c30_keyboard_10_n04505470_3553.JPEG
googlenet,2,337,NaN,keyboard,keyboard,c30,1617_con_dnn_c30_keyboard_10_n04505470_3189.JPEG
googlenet,2,338,NaN,keyboard,keyboard,c30,1618_con_dnn_c30_keyboard_10_n03085013_4281.JPEG
googlenet,2,339,NaN,keyboard,keyboard,c30,1619_con_dnn_c30_keyboard_10_n04505470_361.JPEG
googlenet,2,340,NaN,keyboard,keyboard,c30,1620_con_dnn_c30_keyboard_10_n03085013_20216.JPEG
googlenet,2,341,NaN,elephant,elephant,c30,1621_con_dnn_c30_elephant_10_n02504458_12650.JPEG
googlenet,2,342,NaN,elephant,elephant,c30,1622_con_dnn_c30_elephant_10_n02504458_8197.JPEG
googlenet,2,343,NaN,elephant,elephant,c30,1623_con_dnn_c30_elephant_10_n02504013_10304.JPEG
googlenet,2,344,NaN,elephant,elephant,c30,1624_con_dnn_c30_elephant_10_n02504013_22388.JPEG
googlenet,2,345,NaN,dog,elephant,c30,1625_con_dnn_c30_elephant_10_n02504013_4005.JPEG
googlenet,2,346,NaN,bear,elephant,c30,1626_con_dnn_c30_elephant_10_n02504458_9281.JPEG
googlenet,2,347,NaN,elephant,elephant,c30,1627_con_dnn_c30_elephant_10_n02504013_1273.JPEG
googlenet,2,348,NaN,bear,elephant,c30,1628_con_dnn_c30_elephant_10_n02504013_1183.JPEG
googlenet,2,349,NaN,elephant,elephant,c30,1629_con_dnn_c30_elephant_10_n02504013_720.JPEG
googlenet,2,350,NaN,elephant,elephant,c30,1630_con_dnn_c30_elephant_10_n02504013_4081.JPEG
googlenet,2,351,NaN,chair,bicycle,c30,1631_con_dnn_c30_bicycle_10_n02835271_7355.JPEG
googlenet,2,352,NaN,cat,bicycle,c30,1632_con_dnn_c30_bicycle_10_n03792782_586.JPEG
googlenet,2,353,NaN,bicycle,bicycle,c30,1633_con_dnn_c30_bicycle_10_n03792782_1108.JPEG
googlenet,2,354,NaN,bicycle,bicycle,c30,1634_con_dnn_c30_bicycle_10_n03792782_31096.JPEG
googlenet,2,355,NaN,bicycle,bicycle,c30,1635_con_dnn_c30_bicycle_10_n03792782_10547.JPEG
googlenet,2,356,NaN,bicycle,bicycle,c30,1636_con_dnn_c30_bicycle_10_n02835271_13124.JPEG
googlenet,2,357,NaN,bicycle,bicycle,c30,1637_con_dnn_c30_bicycle_10_n02835271_4534.JPEG
googlenet,2,358,NaN,bicycle,bicycle,c30,1638_con_dnn_c30_bicycle_10_n03792782_13608.JPEG
googlenet,2,359,NaN,bicycle,bicycle,c30,1639_con_dnn_c30_bicycle_10_n02835271_9772.JPEG
googlenet,2,360,NaN,chair,bicycle,c30,1640_con_dnn_c30_bicycle_10_n03792782_13546.JPEG
googlenet,2,361,NaN,airplane,airplane,c30,1641_con_dnn_c30_airplane_10_n02690373_6429.JPEG
googlenet,2,362,NaN,airplane,airplane,c30,1642_con_dnn_c30_airplane_10_n02690373_10044.JPEG
googlenet,2,363,NaN,airplane,airplane,c30,1643_con_dnn_c30_airplane_10_n02690373_9533.JPEG
googlenet,2,364,NaN,airplane,airplane,c30,1644_con_dnn_c30_airplane_10_n02690373_2607.JPEG
googlenet,2,365,NaN,airplane,airplane,c30,1645_con_dnn_c30_airplane_10_n02690373_7432.JPEG
googlenet,2,366,NaN,airplane,airplane,c30,1646_con_dnn_c30_airplane_10_n02690373_4714.JPEG
googlenet,2,367,NaN,airplane,airplane,c30,1647_con_dnn_c30_airplane_10_n02690373_6210.JPEG
googlenet,2,368,NaN,airplane,airplane,c30,1648_con_dnn_c30_airplane_10_n02690373_2874.JPEG
googlenet,2,369,NaN,boat,airplane,c30,1649_con_dnn_c30_airplane_10_n02690373_6362.JPEG
googlenet,2,370,NaN,airplane,airplane,c30,1650_con_dnn_c30_airplane_10_n02690373_8538.JPEG
googlenet,2,371,NaN,clock,clock,c30,1651_con_dnn_c30_clock_10_n02708093_442.JPEG
googlenet,2,372,NaN,clock,clock,c30,1652_con_dnn_c30_clock_10_n02708093_31.JPEG
googlenet,2,373,NaN,clock,clock,c30,1653_con_dnn_c30_clock_10_n04548280_13247.JPEG
googlenet,2,374,NaN,clock,clock,c30,1654_con_dnn_c30_clock_10_n03196217_4537.JPEG
googlenet,2,375,NaN,clock,clock,c30,1655_con_dnn_c30_clock_10_n04548280_47.JPEG
googlenet,2,376,NaN,clock,clock,c30,1656_con_dnn_c30_clock_10_n04548280_8795.JPEG
googlenet,2,377,NaN,clock,clock,c30,1657_con_dnn_c30_clock_10_n02708093_2886.JPEG
googlenet,2,378,NaN,clock,clock,c30,1658_con_dnn_c30_clock_10_n02708093_7537.JPEG
googlenet,2,379,NaN,clock,clock,c30,1659_con_dnn_c30_clock_10_n04548280_5076.JPEG
googlenet,2,380,NaN,clock,clock,c30,1660_con_dnn_c30_clock_10_n03196217_156.JPEG
googlenet,2,381,NaN,oven,oven,c30,1661_con_dnn_c30_oven_10_n04111531_9263.JPEG
googlenet,2,382,NaN,oven,oven,c30,1662_con_dnn_c30_oven_10_n04111531_2091.JPEG
googlenet,2,383,NaN,bear,oven,c30,1663_con_dnn_c30_oven_10_n04111531_9838.JPEG
googlenet,2,384,NaN,oven,oven,c30,1664_con_dnn_c30_oven_10_n04111531_14383.JPEG
googlenet,2,385,NaN,oven,oven,c30,1665_con_dnn_c30_oven_10_n04111531_8350.JPEG
googlenet,2,386,NaN,oven,oven,c30,1666_con_dnn_c30_oven_10_n04111531_8658.JPEG
googlenet,2,387,NaN,dog,oven,c30,1667_con_dnn_c30_oven_10_n04111531_6415.JPEG
googlenet,2,388,NaN,oven,oven,c30,1668_con_dnn_c30_oven_10_n04111531_537.JPEG
googlenet,2,389,NaN,cat,oven,c30,1669_con_dnn_c30_oven_10_n04111531_2855.JPEG
googlenet,2,390,NaN,oven,oven,c30,1670_con_dnn_c30_oven_10_n04111531_9498.JPEG
googlenet,2,391,NaN,chair,chair,c30,1671_con_dnn_c30_chair_10_n04099969_10966.JPEG
googlenet,2,392,NaN,chair,chair,c30,1672_con_dnn_c30_chair_10_n04099969_35329.JPEG
googlenet,2,393,NaN,chair,chair,c30,1673_con_dnn_c30_chair_10_n04429376_39889.JPEG
googlenet,2,394,NaN,chair,chair,c30,1674_con_dnn_c30_chair_10_n04429376_11638.JPEG
googlenet,2,395,NaN,chair,chair,c30,1675_con_dnn_c30_chair_10_n03376595_5184.JPEG
googlenet,2,396,NaN,chair,chair,c30,1676_con_dnn_c30_chair_10_n03376595_2192.JPEG
googlenet,2,397,NaN,chair,chair,c30,1677_con_dnn_c30_chair_10_n02791124_2429.JPEG
googlenet,2,398,NaN,chair,chair,c30,1678_con_dnn_c30_chair_10_n04429376_17343.JPEG
googlenet,2,399,NaN,chair,chair,c30,1679_con_dnn_c30_chair_10_n04099969_3882.JPEG
googlenet,2,400,NaN,chair,chair,c30,1680_con_dnn_c30_chair_10_n04099969_5698.JPEG
googlenet,2,401,NaN,cat,bear,c30,1681_con_dnn_c30_bear_10_n02132136_6155.JPEG
googlenet,2,402,NaN,bear,bear,c30,1682_con_dnn_c30_bear_10_n02134418_4059.JPEG
googlenet,2,403,NaN,bear,bear,c30,1683_con_dnn_c30_bear_10_n02133161_3774.JPEG
googlenet,2,404,NaN,bear,bear,c30,1684_con_dnn_c30_bear_10_n02133161_7068.JPEG
googlenet,2,405,NaN,dog,bear,c30,1685_con_dnn_c30_bear_10_n02132136_6266.JPEG
googlenet,2,406,NaN,dog,bear,c30,1686_con_dnn_c30_bear_10_n02134418_5992.JPEG
googlenet,2,407,NaN,bear,bear,c30,1687_con_dnn_c30_bear_10_n02132136_1846.JPEG
googlenet,2,408,NaN,bear,bear,c30,1688_con_dnn_c30_bear_10_n02133161_7819.JPEG
googlenet,2,409,NaN,dog,bear,c30,1689_con_dnn_c30_bear_10_n02134418_1267.JPEG
googlenet,2,410,NaN,bear,bear,c30,1690_con_dnn_c30_bear_10_n02132136_27702.JPEG
googlenet,2,411,NaN,boat,boat,c30,1691_con_dnn_c30_boat_10_n03662601_16366.JPEG
googlenet,2,412,NaN,boat,boat,c30,1692_con_dnn_c30_boat_10_n02951358_8274.JPEG
googlenet,2,413,NaN,boat,boat,c30,1693_con_dnn_c30_boat_10_n02951358_14002.JPEG
googlenet,2,414,NaN,boat,boat,c30,1694_con_dnn_c30_boat_10_n04273569_21577.JPEG
googlenet,2,415,NaN,boat,boat,c30,1695_con_dnn_c30_boat_10_n03344393_3224.JPEG
googlenet,2,416,NaN,boat,boat,c30,1696_con_dnn_c30_boat_10_n04612504_2479.JPEG
googlenet,2,417,NaN,boat,boat,c30,1697_con_dnn_c30_boat_10_n02951358_33701.JPEG
googlenet,2,418,NaN,boat,boat,c30,1698_con_dnn_c30_boat_10_n04612504_14406.JPEG
googlenet,2,419,NaN,boat,boat,c30,1699_con_dnn_c30_boat_10_n03344393_14208.JPEG
googlenet,2,420,NaN,boat,boat,c30,1700_con_dnn_c30_boat_10_n03344393_7175.JPEG
googlenet,2,421,NaN,cat,cat,c30,1701_con_dnn_c30_cat_10_n02123597_12884.JPEG
googlenet,2,422,NaN,dog,cat,c30,1702_con_dnn_c30_cat_10_n02123597_13278.JPEG
googlenet,2,423,NaN,cat,cat,c30,1703_con_dnn_c30_cat_10_n02123045_3872.JPEG
googlenet,2,424,NaN,cat,cat,c30,1704_con_dnn_c30_cat_10_n02123159_529.JPEG
googlenet,2,425,NaN,dog,cat,c30,1705_con_dnn_c30_cat_10_n02123045_2705.JPEG
googlenet,2,426,NaN,cat,cat,c30,1706_con_dnn_c30_cat_10_n02123159_3838.JPEG
googlenet,2,427,NaN,bear,cat,c30,1707_con_dnn_c30_cat_10_n02123394_3761.JPEG
googlenet,2,428,NaN,cat,cat,c30,1708_con_dnn_c30_cat_10_n02123045_562.JPEG
googlenet,2,429,NaN,airplane,cat,c30,1709_con_dnn_c30_cat_10_n02123159_5239.JPEG
googlenet,2,430,NaN,cat,cat,c30,1710_con_dnn_c30_cat_10_n02123394_714.JPEG
googlenet,2,431,NaN,bottle,bottle,c30,1711_con_dnn_c30_bottle_10_n04560804_5951.JPEG
googlenet,2,432,NaN,bottle,bottle,c30,1712_con_dnn_c30_bottle_10_n04591713_5113.JPEG
googlenet,2,433,NaN,bottle,bottle,c30,1713_con_dnn_c30_bottle_10_n03937543_1951.JPEG
googlenet,2,434,NaN,bottle,bottle,c30,1714_con_dnn_c30_bottle_10_n04579145_4881.JPEG
googlenet,2,435,NaN,bottle,bottle,c30,1715_con_dnn_c30_bottle_10_n04560804_2942.JPEG
googlenet,2,436,NaN,bottle,bottle,c30,1716_con_dnn_c30_bottle_10_n04560804_15138.JPEG
googlenet,2,437,NaN,bottle,bottle,c30,1717_con_dnn_c30_bottle_10_n02823428_11018.JPEG
googlenet,2,438,NaN,bottle,bottle,c30,1718_con_dnn_c30_bottle_10_n03983396_2287.JPEG
googlenet,2,439,NaN,bottle,bottle,c30,1719_con_dnn_c30_bottle_10_n02823428_4267.JPEG
googlenet,2,440,NaN,bottle,bottle,c30,1720_con_dnn_c30_bottle_10_n02823428_3504.JPEG
googlenet,2,441,NaN,truck,truck,c30,1721_con_dnn_c30_truck_10_n03796401_7021.JPEG
googlenet,2,442,NaN,truck,truck,c30,1722_con_dnn_c30_truck_10_n03796401_29612.JPEG
googlenet,2,443,NaN,truck,truck,c30,1723_con_dnn_c30_truck_10_n03417042_12322.JPEG
googlenet,2,444,NaN,truck,truck,c30,1724_con_dnn_c30_truck_10_n04467665_38134.JPEG
googlenet,2,445,NaN,truck,truck,c30,1725_con_dnn_c30_truck_10_n03417042_1280.JPEG
googlenet,2,446,NaN,truck,truck,c30,1726_con_dnn_c30_truck_10_n03796401_7104.JPEG
googlenet,2,447,NaN,clock,truck,c30,1727_con_dnn_c30_truck_10_n03796401_3035.JPEG
googlenet,2,448,NaN,truck,truck,c30,1728_con_dnn_c30_truck_10_n03796401_17377.JPEG
googlenet,2,449,NaN,truck,truck,c30,1729_con_dnn_c30_truck_10_n03417042_4552.JPEG
googlenet,2,450,NaN,truck,truck,c30,1730_con_dnn_c30_truck_10_n03417042_11222.JPEG
googlenet,2,451,NaN,car,car,c30,1731_con_dnn_c30_car_10_n03100240_24129.JPEG
googlenet,2,452,NaN,car,car,c30,1732_con_dnn_c30_car_10_n04285008_3010.JPEG
googlenet,2,453,NaN,car,car,c30,1733_con_dnn_c30_car_10_n03100240_8585.JPEG
googlenet,2,454,NaN,bottle,car,c30,1734_con_dnn_c30_car_10_n03100240_16590.JPEG
googlenet,2,455,NaN,car,car,c30,1735_con_dnn_c30_car_10_n03100240_2123.JPEG
googlenet,2,456,NaN,car,car,c30,1736_con_dnn_c30_car_10_n04285008_4829.JPEG
googlenet,2,457,NaN,car,car,c30,1737_con_dnn_c30_car_10_n04285008_628.JPEG
googlenet,2,458,NaN,car,car,c30,1738_con_dnn_c30_car_10_n03100240_9019.JPEG
googlenet,2,459,NaN,car,car,c30,1739_con_dnn_c30_car_10_n03100240_4995.JPEG
googlenet,2,460,NaN,car,car,c30,1740_con_dnn_c30_car_10_n02814533_88831.JPEG
googlenet,2,461,NaN,chair,bird,c30,1741_con_dnn_c30_bird_10_n01843383_18097.JPEG
googlenet,2,462,NaN,bird,bird,c30,1742_con_dnn_c30_bird_10_n01817953_5478.JPEG
googlenet,2,463,NaN,bird,bird,c30,1743_con_dnn_c30_bird_10_n02025239_15554.JPEG
googlenet,2,464,NaN,bird,bird,c30,1744_con_dnn_c30_bird_10_n01817953_9041.JPEG
googlenet,2,465,NaN,bird,bird,c30,1745_con_dnn_c30_bird_10_n02002724_10432.JPEG
googlenet,2,466,NaN,bird,bird,c30,1746_con_dnn_c30_bird_10_n01824575_1820.JPEG
googlenet,2,467,NaN,bird,bird,c30,1747_con_dnn_c30_bird_10_n01829413_2866.JPEG
googlenet,2,468,NaN,bird,bird,c30,1748_con_dnn_c30_bird_10_n01855672_1783.JPEG
googlenet,2,469,NaN,bird,bird,c30,1749_con_dnn_c30_bird_10_n02002724_3449.JPEG
googlenet,2,470,NaN,bird,bird,c30,1750_con_dnn_c30_bird_10_n02007558_6136.JPEG
googlenet,2,471,NaN,dog,dog,c30,1751_con_dnn_c30_dog_10_n02110806_10608.JPEG
googlenet,2,472,NaN,dog,dog,c30,1752_con_dnn_c30_dog_10_n02107574_3439.JPEG
googlenet,2,473,NaN,dog,dog,c30,1753_con_dnn_c30_dog_10_n02110958_7233.JPEG
googlenet,2,474,NaN,dog,dog,c30,1754_con_dnn_c30_dog_10_n02112350_8459.JPEG
googlenet,2,475,NaN,dog,dog,c30,1755_con_dnn_c30_dog_10_n02093428_2285.JPEG
googlenet,2,476,NaN,dog,dog,c30,1756_con_dnn_c30_dog_10_n02094433_2158.JPEG
googlenet,2,477,NaN,dog,dog,c30,1757_con_dnn_c30_dog_10_n02108915_12615.JPEG
googlenet,2,478,NaN,dog,dog,c30,1758_con_dnn_c30_dog_10_n02088632_427.JPEG
googlenet,2,479,NaN,elephant,dog,c30,1759_con_dnn_c30_dog_10_n02096585_6331.JPEG
googlenet,2,480,NaN,dog,dog,c30,1760_con_dnn_c30_dog_10_n02109525_64760.JPEG
googlenet,2,481,NaN,chair,knife,c15,1761_con_dnn_c15_knife_10_n03041632_33488.JPEG
googlenet,2,482,NaN,knife,knife,c15,1762_con_dnn_c15_knife_10_n03041632_13465.JPEG
googlenet,2,483,NaN,bottle,knife,c15,1763_con_dnn_c15_knife_10_n03041632_2468.JPEG
googlenet,2,484,NaN,knife,knife,c15,1764_con_dnn_c15_knife_10_n03041632_10140.JPEG
googlenet,2,485,NaN,knife,knife,c15,1765_con_dnn_c15_knife_10_n03041632_35260.JPEG
googlenet,2,486,NaN,chair,knife,c15,1766_con_dnn_c15_knife_10_n03041632_105080.JPEG
googlenet,2,487,NaN,bottle,knife,c15,1767_con_dnn_c15_knife_10_n03041632_4260.JPEG
googlenet,2,488,NaN,clock,knife,c15,1768_con_dnn_c15_knife_10_n03041632_32459.JPEG
googlenet,2,489,NaN,knife,knife,c15,1769_con_dnn_c15_knife_10_n03041632_1201.JPEG
googlenet,2,490,NaN,knife,knife,c15,1770_con_dnn_c15_knife_10_n03041632_3781.JPEG
googlenet,2,491,NaN,bottle,keyboard,c15,1771_con_dnn_c15_keyboard_10_n04505470_5086.JPEG
googlenet,2,492,NaN,keyboard,keyboard,c15,1772_con_dnn_c15_keyboard_10_n03085013_18878.JPEG
googlenet,2,493,NaN,keyboard,keyboard,c15,1773_con_dnn_c15_keyboard_10_n03085013_19645.JPEG
googlenet,2,494,NaN,clock,keyboard,c15,1774_con_dnn_c15_keyboard_10_n04505470_4516.JPEG
googlenet,2,495,NaN,dog,keyboard,c15,1775_con_dnn_c15_keyboard_10_n03085013_22937.JPEG
googlenet,2,496,NaN,keyboard,keyboard,c15,1776_con_dnn_c15_keyboard_10_n03085013_4156.JPEG
googlenet,2,497,NaN,bottle,keyboard,c15,1777_con_dnn_c15_keyboard_10_n03085013_21948.JPEG
googlenet,2,498,NaN,clock,keyboard,c15,1778_con_dnn_c15_keyboard_10_n03085013_1312.JPEG
googlenet,2,499,NaN,chair,keyboard,c15,1779_con_dnn_c15_keyboard_10_n04505470_179.JPEG
googlenet,2,500,NaN,bottle,keyboard,c15,1780_con_dnn_c15_keyboard_10_n04505470_5099.JPEG
googlenet,2,501,NaN,bear,elephant,c15,1781_con_dnn_c15_elephant_10_n02504013_23998.JPEG
googlenet,2,502,NaN,bear,elephant,c15,1782_con_dnn_c15_elephant_10_n02504013_306.JPEG
googlenet,2,503,NaN,bird,elephant,c15,1783_con_dnn_c15_elephant_10_n02504013_25516.JPEG
googlenet,2,504,NaN,bear,elephant,c15,1784_con_dnn_c15_elephant_10_n02504013_1921.JPEG
googlenet,2,505,NaN,bear,elephant,c15,1785_con_dnn_c15_elephant_10_n02504013_3771.JPEG
googlenet,2,506,NaN,bear,elephant,c15,1786_con_dnn_c15_elephant_10_n02504458_9835.JPEG
googlenet,2,507,NaN,bear,elephant,c15,1787_con_dnn_c15_elephant_10_n02504013_3503.JPEG
googlenet,2,508,NaN,bear,elephant,c15,1788_con_dnn_c15_elephant_10_n02504458_2852.JPEG
googlenet,2,509,NaN,elephant,elephant,c15,1789_con_dnn_c15_elephant_10_n02504458_259.JPEG
googlenet,2,510,NaN,bird,elephant,c15,1790_con_dnn_c15_elephant_10_n02504458_3464.JPEG
googlenet,2,511,NaN,bear,bicycle,c15,1791_con_dnn_c15_bicycle_10_n02835271_20052.JPEG
googlenet,2,512,NaN,bear,bicycle,c15,1792_con_dnn_c15_bicycle_10_n02835271_6978.JPEG
googlenet,2,513,NaN,bottle,bicycle,c15,1793_con_dnn_c15_bicycle_10_n03792782_5086.JPEG
googlenet,2,514,NaN,bottle,bicycle,c15,1794_con_dnn_c15_bicycle_10_n03792782_9525.JPEG
googlenet,2,515,NaN,bottle,bicycle,c15,1795_con_dnn_c15_bicycle_10_n02835271_12028.JPEG
googlenet,2,516,NaN,bottle,bicycle,c15,1796_con_dnn_c15_bicycle_10_n03792782_7085.JPEG
googlenet,2,517,NaN,bottle,bicycle,c15,1797_con_dnn_c15_bicycle_10_n02835271_8531.JPEG
googlenet,2,518,NaN,bottle,bicycle,c15,1798_con_dnn_c15_bicycle_10_n03792782_11404.JPEG
googlenet,2,519,NaN,chair,bicycle,c15,1799_con_dnn_c15_bicycle_10_n03792782_19003.JPEG
googlenet,2,520,NaN,bicycle,bicycle,c15,1800_con_dnn_c15_bicycle_10_n02835271_23845.JPEG
googlenet,2,521,NaN,boat,airplane,c15,1801_con_dnn_c15_airplane_10_n02690373_9991.JPEG
googlenet,2,522,NaN,airplane,airplane,c15,1802_con_dnn_c15_airplane_10_n02690373_777.JPEG
googlenet,2,523,NaN,airplane,airplane,c15,1803_con_dnn_c15_airplane_10_n02690373_9939.JPEG
googlenet,2,524,NaN,airplane,airplane,c15,1804_con_dnn_c15_airplane_10_n02690373_5422.JPEG
googlenet,2,525,NaN,airplane,airplane,c15,1805_con_dnn_c15_airplane_10_n02690373_2379.JPEG
googlenet,2,526,NaN,airplane,airplane,c15,1806_con_dnn_c15_airplane_10_n02690373_10228.JPEG
googlenet,2,527,NaN,airplane,airplane,c15,1807_con_dnn_c15_airplane_10_n02690373_1474.JPEG
googlenet,2,528,NaN,airplane,airplane,c15,1808_con_dnn_c15_airplane_10_n02690373_15097.JPEG
googlenet,2,529,NaN,airplane,airplane,c15,1809_con_dnn_c15_airplane_10_n02690373_12966.JPEG
googlenet,2,530,NaN,airplane,airplane,c15,1810_con_dnn_c15_airplane_10_n02690373_5909.JPEG
googlenet,2,531,NaN,bottle,clock,c15,1811_con_dnn_c15_clock_10_n04548280_9292.JPEG
googlenet,2,532,NaN,knife,clock,c15,1812_con_dnn_c15_clock_10_n02708093_3622.JPEG
googlenet,2,533,NaN,clock,clock,c15,1813_con_dnn_c15_clock_10_n02708093_3394.JPEG
googlenet,2,534,NaN,clock,clock,c15,1814_con_dnn_c15_clock_10_n02708093_8276.JPEG
googlenet,2,535,NaN,clock,clock,c15,1815_con_dnn_c15_clock_10_n02708093_7133.JPEG
googlenet,2,536,NaN,bottle,clock,c15,1816_con_dnn_c15_clock_10_n03196217_1603.JPEG
googlenet,2,537,NaN,clock,clock,c15,1817_con_dnn_c15_clock_10_n04548280_2383.JPEG
googlenet,2,538,NaN,clock,clock,c15,1818_con_dnn_c15_clock_10_n03196217_4916.JPEG
googlenet,2,539,NaN,clock,clock,c15,1819_con_dnn_c15_clock_10_n02708093_2742.JPEG
googlenet,2,540,NaN,clock,clock,c15,1820_con_dnn_c15_clock_10_n03196217_2192.JPEG
googlenet,2,541,NaN,clock,oven,c15,1821_con_dnn_c15_oven_10_n04111531_7593.JPEG
googlenet,2,542,NaN,cat,oven,c15,1822_con_dnn_c15_oven_10_n04111531_7134.JPEG
googlenet,2,543,NaN,oven,oven,c15,1823_con_dnn_c15_oven_10_n04111531_22445.JPEG
googlenet,2,544,NaN,dog,oven,c15,1824_con_dnn_c15_oven_10_n04111531_7764.JPEG
googlenet,2,545,NaN,bottle,oven,c15,1825_con_dnn_c15_oven_10_n04111531_4574.JPEG
googlenet,2,546,NaN,bear,oven,c15,1826_con_dnn_c15_oven_10_n04111531_14753.JPEG
googlenet,2,547,NaN,bear,oven,c15,1827_con_dnn_c15_oven_10_n04111531_21460.JPEG
googlenet,2,548,NaN,cat,oven,c15,1828_con_dnn_c15_oven_10_n04111531_2163.JPEG
googlenet,2,549,NaN,oven,oven,c15,1829_con_dnn_c15_oven_10_n04111531_4918.JPEG
googlenet,2,550,NaN,bear,oven,c15,1830_con_dnn_c15_oven_10_n04111531_17995.JPEG
googlenet,2,551,NaN,chair,chair,c15,1831_con_dnn_c15_chair_10_n02791124_2713.JPEG
googlenet,2,552,NaN,bottle,chair,c15,1832_con_dnn_c15_chair_10_n04429376_18585.JPEG
googlenet,2,553,NaN,chair,chair,c15,1833_con_dnn_c15_chair_10_n04099969_17718.JPEG
googlenet,2,554,NaN,chair,chair,c15,1834_con_dnn_c15_chair_10_n02791124_2491.JPEG
googlenet,2,555,NaN,chair,chair,c15,1835_con_dnn_c15_chair_10_n04099969_56470.JPEG
googlenet,2,556,NaN,chair,chair,c15,1836_con_dnn_c15_chair_10_n02791124_13033.JPEG
googlenet,2,557,NaN,chair,chair,c15,1837_con_dnn_c15_chair_10_n02791124_1115.JPEG
googlenet,2,558,NaN,chair,chair,c15,1838_con_dnn_c15_chair_10_n04429376_23573.JPEG
googlenet,2,559,NaN,chair,chair,c15,1839_con_dnn_c15_chair_10_n04429376_16081.JPEG
googlenet,2,560,NaN,chair,chair,c15,1840_con_dnn_c15_chair_10_n03376595_5773.JPEG
googlenet,2,561,NaN,bear,bear,c15,1841_con_dnn_c15_bear_10_n02133161_2044.JPEG
googlenet,2,562,NaN,dog,bear,c15,1842_con_dnn_c15_bear_10_n02134084_12355.JPEG
googlenet,2,563,NaN,airplane,bear,c15,1843_con_dnn_c15_bear_10_n02133161_1853.JPEG
googlenet,2,564,NaN,bear,bear,c15,1844_con_dnn_c15_bear_10_n02134418_1459.JPEG
googlenet,2,565,NaN,bear,bear,c15,1845_con_dnn_c15_bear_10_n02133161_8947.JPEG
googlenet,2,566,NaN,bear,bear,c15,1846_con_dnn_c15_bear_10_n02134084_21074.JPEG
googlenet,2,567,NaN,bear,bear,c15,1847_con_dnn_c15_bear_10_n02134084_4759.JPEG
googlenet,2,568,NaN,bear,bear,c15,1848_con_dnn_c15_bear_10_n02133161_6419.JPEG
googlenet,2,569,NaN,bear,bear,c15,1849_con_dnn_c15_bear_10_n02132136_29146.JPEG
googlenet,2,570,NaN,bear,bear,c15,1850_con_dnn_c15_bear_10_n02134418_5365.JPEG
googlenet,2,571,NaN,clock,boat,c15,1851_con_dnn_c15_boat_10_n03662601_1090.JPEG
googlenet,2,572,NaN,knife,boat,c15,1852_con_dnn_c15_boat_10_n02951358_4479.JPEG
googlenet,2,573,NaN,airplane,boat,c15,1853_con_dnn_c15_boat_10_n02951358_34234.JPEG
googlenet,2,574,NaN,boat,boat,c15,1854_con_dnn_c15_boat_10_n02951358_30643.JPEG
googlenet,2,575,NaN,bird,boat,c15,1855_con_dnn_c15_boat_10_n04273569_12756.JPEG
googlenet,2,576,NaN,clock,boat,c15,1856_con_dnn_c15_boat_10_n04273569_15761.JPEG
googlenet,2,577,NaN,bird,boat,c15,1857_con_dnn_c15_boat_10_n04273569_1012.JPEG
googlenet,2,578,NaN,bottle,boat,c15,1858_con_dnn_c15_boat_10_n03344393_5024.JPEG
googlenet,2,579,NaN,boat,boat,c15,1859_con_dnn_c15_boat_10_n04612504_8948.JPEG
googlenet,2,580,NaN,boat,boat,c15,1860_con_dnn_c15_boat_10_n02951358_12658.JPEG
googlenet,2,581,NaN,bear,cat,c15,1861_con_dnn_c15_cat_10_n02123045_7021.JPEG
googlenet,2,582,NaN,bear,cat,c15,1862_con_dnn_c15_cat_10_n02123159_1907.JPEG
googlenet,2,583,NaN,cat,cat,c15,1863_con_dnn_c15_cat_10_n02125311_42530.JPEG
googlenet,2,584,NaN,dog,cat,c15,1864_con_dnn_c15_cat_10_n02124075_1839.JPEG
googlenet,2,585,NaN,bear,cat,c15,1865_con_dnn_c15_cat_10_n02123045_5915.JPEG
googlenet,2,586,NaN,bottle,cat,c15,1866_con_dnn_c15_cat_10_n02123045_432.JPEG
googlenet,2,587,NaN,dog,cat,c15,1867_con_dnn_c15_cat_10_n02123045_3290.JPEG
googlenet,2,588,NaN,dog,cat,c15,1868_con_dnn_c15_cat_10_n02125311_24848.JPEG
googlenet,2,589,NaN,bear,cat,c15,1869_con_dnn_c15_cat_10_n02123159_1943.JPEG
googlenet,2,590,NaN,bear,cat,c15,1870_con_dnn_c15_cat_10_n02123597_8443.JPEG
googlenet,2,591,NaN,bottle,bottle,c15,1871_con_dnn_c15_bottle_10_n04591713_2003.JPEG
googlenet,2,592,NaN,bottle,bottle,c15,1872_con_dnn_c15_bottle_10_n03937543_1883.JPEG
googlenet,2,593,NaN,bottle,bottle,c15,1873_con_dnn_c15_bottle_10_n04557648_10698.JPEG
googlenet,2,594,NaN,bottle,bottle,c15,1874_con_dnn_c15_bottle_10_n02823428_2102.JPEG
googlenet,2,595,NaN,bottle,bottle,c15,1875_con_dnn_c15_bottle_10_n04560804_3862.JPEG
googlenet,2,596,NaN,bottle,bottle,c15,1876_con_dnn_c15_bottle_10_n02823428_3923.JPEG
googlenet,2,597,NaN,bottle,bottle,c15,1877_con_dnn_c15_bottle_10_n04560804_9421.JPEG
googlenet,2,598,NaN,bottle,bottle,c15,1878_con_dnn_c15_bottle_10_n03983396_11513.JPEG
googlenet,2,599,NaN,bottle,bottle,c15,1879_con_dnn_c15_bottle_10_n04560804_657.JPEG
googlenet,2,600,NaN,bottle,bottle,c15,1880_con_dnn_c15_bottle_10_n04557648_3597.JPEG
googlenet,2,601,NaN,truck,truck,c15,1881_con_dnn_c15_truck_10_n04467665_242.JPEG
googlenet,2,602,NaN,truck,truck,c15,1882_con_dnn_c15_truck_10_n03417042_26885.JPEG
googlenet,2,603,NaN,truck,truck,c15,1883_con_dnn_c15_truck_10_n04467665_59760.JPEG
googlenet,2,604,NaN,truck,truck,c15,1884_con_dnn_c15_truck_10_n04467665_70988.JPEG
googlenet,2,605,NaN,boat,truck,c15,1885_con_dnn_c15_truck_10_n04467665_38695.JPEG
googlenet,2,606,NaN,truck,truck,c15,1886_con_dnn_c15_truck_10_n03796401_7563.JPEG
googlenet,2,607,NaN,truck,truck,c15,1887_con_dnn_c15_truck_10_n03417042_18590.JPEG
googlenet,2,608,NaN,clock,truck,c15,1888_con_dnn_c15_truck_10_n03417042_29941.JPEG
googlenet,2,609,NaN,truck,truck,c15,1889_con_dnn_c15_truck_10_n03417042_17513.JPEG
googlenet,2,610,NaN,truck,truck,c15,1890_con_dnn_c15_truck_10_n03417042_18253.JPEG
googlenet,2,611,NaN,car,car,c15,1891_con_dnn_c15_car_10_n04285008_10545.JPEG
googlenet,2,612,NaN,car,car,c15,1892_con_dnn_c15_car_10_n02814533_44079.JPEG
googlenet,2,613,NaN,car,car,c15,1893_con_dnn_c15_car_10_n03100240_6078.JPEG
googlenet,2,614,NaN,car,car,c15,1894_con_dnn_c15_car_10_n02814533_45060.JPEG
googlenet,2,615,NaN,bottle,car,c15,1895_con_dnn_c15_car_10_n02814533_60400.JPEG
googlenet,2,616,NaN,boat,car,c15,1896_con_dnn_c15_car_10_n04285008_5749.JPEG
googlenet,2,617,NaN,truck,car,c15,1897_con_dnn_c15_car_10_n02814533_80102.JPEG
googlenet,2,618,NaN,bottle,car,c15,1898_con_dnn_c15_car_10_n02814533_1391.JPEG
googlenet,2,619,NaN,car,car,c15,1899_con_dnn_c15_car_10_n02814533_45594.JPEG
googlenet,2,620,NaN,bottle,car,c15,1900_con_dnn_c15_car_10_n03100240_12429.JPEG
googlenet,2,621,NaN,bird,bird,c15,1901_con_dnn_c15_bird_10_n01534433_3024.JPEG
googlenet,2,622,NaN,bird,bird,c15,1902_con_dnn_c15_bird_10_n01534433_8763.JPEG
googlenet,2,623,NaN,bird,bird,c15,1903_con_dnn_c15_bird_10_n01798484_11730.JPEG
googlenet,2,624,NaN,bird,bird,c15,1904_con_dnn_c15_bird_10_n01530575_2679.JPEG
googlenet,2,625,NaN,bird,bird,c15,1905_con_dnn_c15_bird_10_n01534433_15647.JPEG
googlenet,2,626,NaN,airplane,bird,c15,1906_con_dnn_c15_bird_10_n01829413_686.JPEG
googlenet,2,627,NaN,clock,bird,c15,1907_con_dnn_c15_bird_10_n02025239_3382.JPEG
googlenet,2,628,NaN,bird,bird,c15,1908_con_dnn_c15_bird_10_n01855672_1553.JPEG
googlenet,2,629,NaN,bird,bird,c15,1909_con_dnn_c15_bird_10_n01616318_5296.JPEG
googlenet,2,630,NaN,bird,bird,c15,1910_con_dnn_c15_bird_10_n01855672_10535.JPEG
googlenet,2,631,NaN,dog,dog,c15,1911_con_dnn_c15_dog_10_n02106030_1368.JPEG
googlenet,2,632,NaN,dog,dog,c15,1912_con_dnn_c15_dog_10_n02090622_7207.JPEG
googlenet,2,633,NaN,dog,dog,c15,1913_con_dnn_c15_dog_10_n02095570_980.JPEG
googlenet,2,634,NaN,dog,dog,c15,1914_con_dnn_c15_dog_10_n02102177_1253.JPEG
googlenet,2,635,NaN,dog,dog,c15,1915_con_dnn_c15_dog_10_n02094114_5230.JPEG
googlenet,2,636,NaN,bear,dog,c15,1916_con_dnn_c15_dog_10_n02092339_235.JPEG
googlenet,2,637,NaN,dog,dog,c15,1917_con_dnn_c15_dog_10_n02100877_4894.JPEG
googlenet,2,638,NaN,cat,dog,c15,1918_con_dnn_c15_dog_10_n02108915_2769.JPEG
googlenet,2,639,NaN,bottle,dog,c15,1919_con_dnn_c15_dog_10_n02089867_6574.JPEG
googlenet,2,640,NaN,bear,dog,c15,1920_con_dnn_c15_dog_10_n02099712_5249.JPEG
googlenet,2,641,NaN,knife,knife,c10,1921_con_dnn_c10_knife_10_n03041632_5102.JPEG
googlenet,2,642,NaN,bear,knife,c10,1922_con_dnn_c10_knife_10_n03041632_51339.JPEG
googlenet,2,643,NaN,keyboard,knife,c10,1923_con_dnn_c10_knife_10_n03041632_44230.JPEG
googlenet,2,644,NaN,knife,knife,c10,1924_con_dnn_c10_knife_10_n03041632_27898.JPEG
googlenet,2,645,NaN,knife,knife,c10,1925_con_dnn_c10_knife_10_n03041632_29920.JPEG
googlenet,2,646,NaN,knife,knife,c10,1926_con_dnn_c10_knife_10_n03041632_14442.JPEG
googlenet,2,647,NaN,airplane,knife,c10,1927_con_dnn_c10_knife_10_n03041632_9406.JPEG
googlenet,2,648,NaN,bottle,knife,c10,1928_con_dnn_c10_knife_10_n03041632_7380.JPEG
googlenet,2,649,NaN,knife,knife,c10,1929_con_dnn_c10_knife_10_n03041632_13194.JPEG
googlenet,2,650,NaN,chair,knife,c10,1930_con_dnn_c10_knife_10_n03041632_18859.JPEG
googlenet,2,651,NaN,airplane,keyboard,c10,1931_con_dnn_c10_keyboard_10_n03085013_24502.JPEG
googlenet,2,652,NaN,keyboard,keyboard,c10,1932_con_dnn_c10_keyboard_10_n03085013_18649.JPEG
googlenet,2,653,NaN,keyboard,keyboard,c10,1933_con_dnn_c10_keyboard_10_n04505470_3388.JPEG
googlenet,2,654,NaN,bottle,keyboard,c10,1934_con_dnn_c10_keyboard_10_n03085013_19049.JPEG
googlenet,2,655,NaN,bottle,keyboard,c10,1935_con_dnn_c10_keyboard_10_n04505470_4243.JPEG
googlenet,2,656,NaN,knife,keyboard,c10,1936_con_dnn_c10_keyboard_10_n03085013_24649.JPEG
googlenet,2,657,NaN,bottle,keyboard,c10,1937_con_dnn_c10_keyboard_10_n03085013_24306.JPEG
googlenet,2,658,NaN,bear,keyboard,c10,1938_con_dnn_c10_keyboard_10_n03085013_6166.JPEG
googlenet,2,659,NaN,airplane,keyboard,c10,1939_con_dnn_c10_keyboard_10_n03085013_20837.JPEG
googlenet,2,660,NaN,keyboard,keyboard,c10,1940_con_dnn_c10_keyboard_10_n04505470_1537.JPEG
googlenet,2,661,NaN,bear,elephant,c10,1941_con_dnn_c10_elephant_10_n02504013_6549.JPEG
googlenet,2,662,NaN,bear,elephant,c10,1942_con_dnn_c10_elephant_10_n02504013_5398.JPEG
googlenet,2,663,NaN,bear,elephant,c10,1943_con_dnn_c10_elephant_10_n02504013_6476.JPEG
googlenet,2,664,NaN,elephant,elephant,c10,1944_con_dnn_c10_elephant_10_n02504458_4987.JPEG
googlenet,2,665,NaN,bear,elephant,c10,1945_con_dnn_c10_elephant_10_n02504013_4307.JPEG
googlenet,2,666,NaN,elephant,elephant,c10,1946_con_dnn_c10_elephant_10_n02504013_7078.JPEG
googlenet,2,667,NaN,bear,elephant,c10,1947_con_dnn_c10_elephant_10_n02504458_6079.JPEG
googlenet,2,668,NaN,dog,elephant,c10,1948_con_dnn_c10_elephant_10_n02504458_6.JPEG
googlenet,2,669,NaN,bear,elephant,c10,1949_con_dnn_c10_elephant_10_n02504013_5859.JPEG
googlenet,2,670,NaN,bottle,elephant,c10,1950_con_dnn_c10_elephant_10_n02504013_3569.JPEG
googlenet,2,671,NaN,bear,bicycle,c10,1951_con_dnn_c10_bicycle_10_n02835271_10551.JPEG
googlenet,2,672,NaN,bottle,bicycle,c10,1952_con_dnn_c10_bicycle_10_n03792782_47694.JPEG
googlenet,2,673,NaN,clock,bicycle,c10,1953_con_dnn_c10_bicycle_10_n03792782_14642.JPEG
googlenet,2,674,NaN,bottle,bicycle,c10,1954_con_dnn_c10_bicycle_10_n02835271_4961.JPEG
googlenet,2,675,NaN,bottle,bicycle,c10,1955_con_dnn_c10_bicycle_10_n02835271_15691.JPEG
googlenet,2,676,NaN,bottle,bicycle,c10,1956_con_dnn_c10_bicycle_10_n03792782_7568.JPEG
googlenet,2,677,NaN,bottle,bicycle,c10,1957_con_dnn_c10_bicycle_10_n02835271_2015.JPEG
googlenet,2,678,NaN,bear,bicycle,c10,1958_con_dnn_c10_bicycle_10_n02835271_747.JPEG
googlenet,2,679,NaN,bird,bicycle,c10,1959_con_dnn_c10_bicycle_10_n03792782_14531.JPEG
googlenet,2,680,NaN,clock,bicycle,c10,1960_con_dnn_c10_bicycle_10_n02835271_12957.JPEG
googlenet,2,681,NaN,airplane,airplane,c10,1961_con_dnn_c10_airplane_10_n02690373_2431.JPEG
googlenet,2,682,NaN,airplane,airplane,c10,1962_con_dnn_c10_airplane_10_n02690373_9059.JPEG
googlenet,2,683,NaN,airplane,airplane,c10,1963_con_dnn_c10_airplane_10_n02690373_3928.JPEG
googlenet,2,684,NaN,airplane,airplane,c10,1964_con_dnn_c10_airplane_10_n02690373_4946.JPEG
googlenet,2,685,NaN,airplane,airplane,c10,1965_con_dnn_c10_airplane_10_n02690373_7647.JPEG
googlenet,2,686,NaN,airplane,airplane,c10,1966_con_dnn_c10_airplane_10_n02690373_9618.JPEG
googlenet,2,687,NaN,bottle,airplane,c10,1967_con_dnn_c10_airplane_10_n02690373_5142.JPEG
googlenet,2,688,NaN,clock,airplane,c10,1968_con_dnn_c10_airplane_10_n02690373_1053.JPEG
googlenet,2,689,NaN,airplane,airplane,c10,1969_con_dnn_c10_airplane_10_n02690373_6753.JPEG
googlenet,2,690,NaN,airplane,airplane,c10,1970_con_dnn_c10_airplane_10_n02690373_17718.JPEG
googlenet,2,691,NaN,knife,clock,c10,1971_con_dnn_c10_clock_10_n04548280_2283.JPEG
googlenet,2,692,NaN,bottle,clock,c10,1972_con_dnn_c10_clock_10_n03196217_127.JPEG
googlenet,2,693,NaN,clock,clock,c10,1973_con_dnn_c10_clock_10_n03196217_4224.JPEG
googlenet,2,694,NaN,bottle,clock,c10,1974_con_dnn_c10_clock_10_n03196217_5300.JPEG
googlenet,2,695,NaN,airplane,clock,c10,1975_con_dnn_c10_clock_10_n03196217_3007.JPEG
googlenet,2,696,NaN,clock,clock,c10,1976_con_dnn_c10_clock_10_n02708093_4976.JPEG
googlenet,2,697,NaN,clock,clock,c10,1977_con_dnn_c10_clock_10_n02708093_1495.JPEG
googlenet,2,698,NaN,clock,clock,c10,1978_con_dnn_c10_clock_10_n02708093_6414.JPEG
googlenet,2,699,NaN,bottle,clock,c10,1979_con_dnn_c10_clock_10_n03196217_6042.JPEG
googlenet,2,700,NaN,bottle,clock,c10,1980_con_dnn_c10_clock_10_n03196217_3697.JPEG
googlenet,2,701,NaN,cat,oven,c10,1981_con_dnn_c10_oven_10_n04111531_6412.JPEG
googlenet,2,702,NaN,boat,oven,c10,1982_con_dnn_c10_oven_10_n04111531_10358.JPEG
googlenet,2,703,NaN,bottle,oven,c10,1983_con_dnn_c10_oven_10_n04111531_1599.JPEG
googlenet,2,704,NaN,bear,oven,c10,1984_con_dnn_c10_oven_10_n04111531_15467.JPEG
googlenet,2,705,NaN,bear,oven,c10,1985_con_dnn_c10_oven_10_n04111531_5570.JPEG
googlenet,2,706,NaN,oven,oven,c10,1986_con_dnn_c10_oven_10_n04111531_5463.JPEG
googlenet,2,707,NaN,bear,oven,c10,1987_con_dnn_c10_oven_10_n04111531_15667.JPEG
googlenet,2,708,NaN,bottle,oven,c10,1988_con_dnn_c10_oven_10_n04111531_4939.JPEG
googlenet,2,709,NaN,bottle,oven,c10,1989_con_dnn_c10_oven_10_n04111531_2987.JPEG
googlenet,2,710,NaN,boat,oven,c10,1990_con_dnn_c10_oven_10_n04111531_9289.JPEG
googlenet,2,711,NaN,chair,chair,c10,1991_con_dnn_c10_chair_10_n04429376_14691.JPEG
googlenet,2,712,NaN,chair,chair,c10,1992_con_dnn_c10_chair_10_n04099969_14208.JPEG
googlenet,2,713,NaN,chair,chair,c10,1993_con_dnn_c10_chair_10_n04429376_2478.JPEG
googlenet,2,714,NaN,chair,chair,c10,1994_con_dnn_c10_chair_10_n04429376_14804.JPEG
googlenet,2,715,NaN,dog,chair,c10,1995_con_dnn_c10_chair_10_n04099969_2418.JPEG
googlenet,2,716,NaN,chair,chair,c10,1996_con_dnn_c10_chair_10_n03376595_2398.JPEG
googlenet,2,717,NaN,bottle,chair,c10,1997_con_dnn_c10_chair_10_n02791124_7530.JPEG
googlenet,2,718,NaN,chair,chair,c10,1998_con_dnn_c10_chair_10_n02791124_3964.JPEG
googlenet,2,719,NaN,chair,chair,c10,1999_con_dnn_c10_chair_10_n02791124_9162.JPEG
googlenet,2,720,NaN,chair,chair,c10,2000_con_dnn_c10_chair_10_n03376595_9986.JPEG
googlenet,2,721,NaN,bear,bear,c10,2001_con_dnn_c10_bear_10_n02133161_610.JPEG
googlenet,2,722,NaN,bear,bear,c10,2002_con_dnn_c10_bear_10_n02134418_908.JPEG
googlenet,2,723,NaN,airplane,bear,c10,2003_con_dnn_c10_bear_10_n02134084_21202.JPEG
googlenet,2,724,NaN,bear,bear,c10,2004_con_dnn_c10_bear_10_n02134418_482.JPEG
googlenet,2,725,NaN,bear,bear,c10,2005_con_dnn_c10_bear_10_n02134418_5242.JPEG
googlenet,2,726,NaN,bear,bear,c10,2006_con_dnn_c10_bear_10_n02134084_428.JPEG
googlenet,2,727,NaN,bear,bear,c10,2007_con_dnn_c10_bear_10_n02132136_20162.JPEG
googlenet,2,728,NaN,bear,bear,c10,2008_con_dnn_c10_bear_10_n02132136_24408.JPEG
googlenet,2,729,NaN,bear,bear,c10,2009_con_dnn_c10_bear_10_n02132136_1405.JPEG
googlenet,2,730,NaN,bear,bear,c10,2010_con_dnn_c10_bear_10_n02134418_3382.JPEG
googlenet,2,731,NaN,bottle,boat,c10,2011_con_dnn_c10_boat_10_n04612504_21132.JPEG
googlenet,2,732,NaN,bear,boat,c10,2012_con_dnn_c10_boat_10_n04612504_7784.JPEG
googlenet,2,733,NaN,boat,boat,c10,2013_con_dnn_c10_boat_10_n02951358_13741.JPEG
googlenet,2,734,NaN,boat,boat,c10,2014_con_dnn_c10_boat_10_n03662601_5147.JPEG
googlenet,2,735,NaN,chair,boat,c10,2015_con_dnn_c10_boat_10_n03344393_4844.JPEG
googlenet,2,736,NaN,boat,boat,c10,2016_con_dnn_c10_boat_10_n02951358_20967.JPEG
googlenet,2,737,NaN,bear,boat,c10,2017_con_dnn_c10_boat_10_n03662601_12300.JPEG
googlenet,2,738,NaN,boat,boat,c10,2018_con_dnn_c10_boat_10_n02951358_30479.JPEG
googlenet,2,739,NaN,bear,boat,c10,2019_con_dnn_c10_boat_10_n03344393_5946.JPEG
googlenet,2,740,NaN,boat,boat,c10,2020_con_dnn_c10_boat_10_n02951358_36364.JPEG
googlenet,2,741,NaN,bear,cat,c10,2021_con_dnn_c10_cat_10_n02124075_2417.JPEG
googlenet,2,742,NaN,bear,cat,c10,2022_con_dnn_c10_cat_10_n02123597_11202.JPEG
googlenet,2,743,NaN,dog,cat,c10,2023_con_dnn_c10_cat_10_n02123597_6550.JPEG
googlenet,2,744,NaN,bear,cat,c10,2024_con_dnn_c10_cat_10_n02123159_4612.JPEG
googlenet,2,745,NaN,bottle,cat,c10,2025_con_dnn_c10_cat_10_n02125311_52637.JPEG
googlenet,2,746,NaN,cat,cat,c10,2026_con_dnn_c10_cat_10_n02123597_11198.JPEG
googlenet,2,747,NaN,bear,cat,c10,2027_con_dnn_c10_cat_10_n02125311_28254.JPEG
googlenet,2,748,NaN,dog,cat,c10,2028_con_dnn_c10_cat_10_n02123394_5242.JPEG
googlenet,2,749,NaN,dog,cat,c10,2029_con_dnn_c10_cat_10_n02123597_1194.JPEG
googlenet,2,750,NaN,bear,cat,c10,2030_con_dnn_c10_cat_10_n02123597_8165.JPEG
googlenet,2,751,NaN,bottle,bottle,c10,2031_con_dnn_c10_bottle_10_n04557648_2192.JPEG
googlenet,2,752,NaN,bottle,bottle,c10,2032_con_dnn_c10_bottle_10_n04560804_5196.JPEG
googlenet,2,753,NaN,bottle,bottle,c10,2033_con_dnn_c10_bottle_10_n04591713_33.JPEG
googlenet,2,754,NaN,bottle,bottle,c10,2034_con_dnn_c10_bottle_10_n04579145_299.JPEG
googlenet,2,755,NaN,bottle,bottle,c10,2035_con_dnn_c10_bottle_10_n04557648_11295.JPEG
googlenet,2,756,NaN,bottle,bottle,c10,2036_con_dnn_c10_bottle_10_n04557648_12369.JPEG
googlenet,2,757,NaN,bottle,bottle,c10,2037_con_dnn_c10_bottle_10_n03937543_8707.JPEG
googlenet,2,758,NaN,bottle,bottle,c10,2038_con_dnn_c10_bottle_10_n03937543_2873.JPEG
googlenet,2,759,NaN,bottle,bottle,c10,2039_con_dnn_c10_bottle_10_n03937543_5096.JPEG
googlenet,2,760,NaN,bottle,bottle,c10,2040_con_dnn_c10_bottle_10_n04557648_3294.JPEG
googlenet,2,761,NaN,clock,truck,c10,2041_con_dnn_c10_truck_10_n04467665_3433.JPEG
googlenet,2,762,NaN,truck,truck,c10,2042_con_dnn_c10_truck_10_n04467665_34586.JPEG
googlenet,2,763,NaN,airplane,truck,c10,2043_con_dnn_c10_truck_10_n03417042_10859.JPEG
googlenet,2,764,NaN,truck,truck,c10,2044_con_dnn_c10_truck_10_n04467665_28424.JPEG
googlenet,2,765,NaN,truck,truck,c10,2045_con_dnn_c10_truck_10_n03417042_1336.JPEG
googlenet,2,766,NaN,bottle,truck,c10,2046_con_dnn_c10_truck_10_n03417042_6941.JPEG
googlenet,2,767,NaN,bottle,truck,c10,2047_con_dnn_c10_truck_10_n03417042_16688.JPEG
googlenet,2,768,NaN,truck,truck,c10,2048_con_dnn_c10_truck_10_n03417042_9170.JPEG
googlenet,2,769,NaN,chair,truck,c10,2049_con_dnn_c10_truck_10_n03417042_9152.JPEG
googlenet,2,770,NaN,bottle,truck,c10,2050_con_dnn_c10_truck_10_n03417042_1561.JPEG
googlenet,2,771,NaN,bottle,car,c10,2051_con_dnn_c10_car_10_n02814533_35230.JPEG
googlenet,2,772,NaN,bear,car,c10,2052_con_dnn_c10_car_10_n02814533_23903.JPEG
googlenet,2,773,NaN,car,car,c10,2053_con_dnn_c10_car_10_n02814533_96869.JPEG
googlenet,2,774,NaN,car,car,c10,2054_con_dnn_c10_car_10_n03100240_1910.JPEG
googlenet,2,775,NaN,bear,car,c10,2055_con_dnn_c10_car_10_n02814533_9309.JPEG
googlenet,2,776,NaN,boat,car,c10,2056_con_dnn_c10_car_10_n03100240_1435.JPEG
googlenet,2,777,NaN,bottle,car,c10,2057_con_dnn_c10_car_10_n02814533_17774.JPEG
googlenet,2,778,NaN,car,car,c10,2058_con_dnn_c10_car_10_n04285008_1716.JPEG
googlenet,2,779,NaN,car,car,c10,2059_con_dnn_c10_car_10_n04285008_15538.JPEG
googlenet,2,780,NaN,car,car,c10,2060_con_dnn_c10_car_10_n02814533_85152.JPEG
googlenet,2,781,NaN,bear,bird,c10,2061_con_dnn_c10_bird_10_n02013706_888.JPEG
googlenet,2,782,NaN,bird,bird,c10,2062_con_dnn_c10_bird_10_n01820546_4601.JPEG
googlenet,2,783,NaN,bottle,bird,c10,2063_con_dnn_c10_bird_10_n01514859_10561.JPEG
googlenet,2,784,NaN,bird,bird,c10,2064_con_dnn_c10_bird_10_n02056570_9553.JPEG
googlenet,2,785,NaN,bird,bird,c10,2065_con_dnn_c10_bird_10_n02009912_32128.JPEG
googlenet,2,786,NaN,bird,bird,c10,2066_con_dnn_c10_bird_10_n01534433_8687.JPEG
googlenet,2,787,NaN,bear,bird,c10,2067_con_dnn_c10_bird_10_n01817953_4192.JPEG
googlenet,2,788,NaN,bottle,bird,c10,2068_con_dnn_c10_bird_10_n01530575_4216.JPEG
googlenet,2,789,NaN,bird,bird,c10,2069_con_dnn_c10_bird_10_n01843383_277.JPEG
googlenet,2,790,NaN,bird,bird,c10,2070_con_dnn_c10_bird_10_n01592084_2668.JPEG
googlenet,2,791,NaN,bear,dog,c10,2071_con_dnn_c10_dog_10_n02099712_3421.JPEG
googlenet,2,792,NaN,bear,dog,c10,2072_con_dnn_c10_dog_10_n02091244_8694.JPEG
googlenet,2,793,NaN,bear,dog,c10,2073_con_dnn_c10_dog_10_n02108000_3486.JPEG
googlenet,2,794,NaN,dog,dog,c10,2074_con_dnn_c10_dog_10_n02086079_17686.JPEG
googlenet,2,795,NaN,bottle,dog,c10,2075_con_dnn_c10_dog_10_n02106382_5907.JPEG
googlenet,2,796,NaN,bottle,dog,c10,2076_con_dnn_c10_dog_10_n02098286_4400.JPEG
googlenet,2,797,NaN,dog,dog,c10,2077_con_dnn_c10_dog_10_n02099601_5531.JPEG
googlenet,2,798,NaN,bottle,dog,c10,2078_con_dnn_c10_dog_10_n02108551_1207.JPEG
googlenet,2,799,NaN,chair,dog,c10,2079_con_dnn_c10_dog_10_n02096051_3287.JPEG
googlenet,2,800,NaN,cat,dog,c10,2080_con_dnn_c10_dog_10_n02086910_2214.JPEG
googlenet,2,801,NaN,airplane,knife,c05,2081_con_dnn_c05_knife_10_n03041632_126.JPEG
googlenet,2,802,NaN,airplane,knife,c05,2082_con_dnn_c05_knife_10_n03041632_33584.JPEG
googlenet,2,803,NaN,knife,knife,c05,2083_con_dnn_c05_knife_10_n03041632_47759.JPEG
googlenet,2,804,NaN,airplane,knife,c05,2084_con_dnn_c05_knife_10_n03041632_20595.JPEG
googlenet,2,805,NaN,knife,knife,c05,2085_con_dnn_c05_knife_10_n03041632_21859.JPEG
googlenet,2,806,NaN,airplane,knife,c05,2086_con_dnn_c05_knife_10_n03041632_7680.JPEG
googlenet,2,807,NaN,clock,knife,c05,2087_con_dnn_c05_knife_10_n03041632_27575.JPEG
googlenet,2,808,NaN,bear,knife,c05,2088_con_dnn_c05_knife_10_n03041632_20194.JPEG
googlenet,2,809,NaN,bear,knife,c05,2089_con_dnn_c05_knife_10_n03041632_5801.JPEG
googlenet,2,810,NaN,knife,knife,c05,2090_con_dnn_c05_knife_10_n03041632_28443.JPEG
googlenet,2,811,NaN,keyboard,keyboard,c05,2091_con_dnn_c05_keyboard_10_n04505470_961.JPEG
googlenet,2,812,NaN,bottle,keyboard,c05,2092_con_dnn_c05_keyboard_10_n03085013_24001.JPEG
googlenet,2,813,NaN,keyboard,keyboard,c05,2093_con_dnn_c05_keyboard_10_n03085013_12079.JPEG
googlenet,2,814,NaN,keyboard,keyboard,c05,2094_con_dnn_c05_keyboard_10_n04505470_5155.JPEG
googlenet,2,815,NaN,knife,keyboard,c05,2095_con_dnn_c05_keyboard_10_n04505470_4791.JPEG
googlenet,2,816,NaN,clock,keyboard,c05,2096_con_dnn_c05_keyboard_10_n03085013_23239.JPEG
googlenet,2,817,NaN,keyboard,keyboard,c05,2097_con_dnn_c05_keyboard_10_n03085013_24182.JPEG
googlenet,2,818,NaN,airplane,keyboard,c05,2098_con_dnn_c05_keyboard_10_n03085013_19916.JPEG
googlenet,2,819,NaN,chair,keyboard,c05,2099_con_dnn_c05_keyboard_10_n04505470_4764.JPEG
googlenet,2,820,NaN,knife,keyboard,c05,2100_con_dnn_c05_keyboard_10_n03085013_24115.JPEG
googlenet,2,821,NaN,elephant,elephant,c05,2101_con_dnn_c05_elephant_10_n02504013_8534.JPEG
googlenet,2,822,NaN,knife,elephant,c05,2102_con_dnn_c05_elephant_10_n02504458_481.JPEG
googlenet,2,823,NaN,dog,elephant,c05,2103_con_dnn_c05_elephant_10_n02504458_2237.JPEG
googlenet,2,824,NaN,bird,elephant,c05,2104_con_dnn_c05_elephant_10_n02504013_7777.JPEG
googlenet,2,825,NaN,bird,elephant,c05,2105_con_dnn_c05_elephant_10_n02504013_7316.JPEG
googlenet,2,826,NaN,bear,elephant,c05,2106_con_dnn_c05_elephant_10_n02504013_2394.JPEG
googlenet,2,827,NaN,bird,elephant,c05,2107_con_dnn_c05_elephant_10_n02504458_2498.JPEG
googlenet,2,828,NaN,dog,elephant,c05,2108_con_dnn_c05_elephant_10_n02504013_7163.JPEG
googlenet,2,829,NaN,cat,elephant,c05,2109_con_dnn_c05_elephant_10_n02504013_1531.JPEG
googlenet,2,830,NaN,bear,elephant,c05,2110_con_dnn_c05_elephant_10_n02504458_5169.JPEG
googlenet,2,831,NaN,dog,bicycle,c05,2111_con_dnn_c05_bicycle_10_n02835271_2581.JPEG
googlenet,2,832,NaN,bear,bicycle,c05,2112_con_dnn_c05_bicycle_10_n03792782_5089.JPEG
googlenet,2,833,NaN,bottle,bicycle,c05,2113_con_dnn_c05_bicycle_10_n02835271_650.JPEG
googlenet,2,834,NaN,bear,bicycle,c05,2114_con_dnn_c05_bicycle_10_n02835271_7248.JPEG
googlenet,2,835,NaN,bottle,bicycle,c05,2115_con_dnn_c05_bicycle_10_n02835271_24213.JPEG
googlenet,2,836,NaN,bottle,bicycle,c05,2116_con_dnn_c05_bicycle_10_n02835271_8161.JPEG
googlenet,2,837,NaN,bottle,bicycle,c05,2117_con_dnn_c05_bicycle_10_n03792782_11342.JPEG
googlenet,2,838,NaN,bottle,bicycle,c05,2118_con_dnn_c05_bicycle_10_n02835271_7038.JPEG
googlenet,2,839,NaN,bottle,bicycle,c05,2119_con_dnn_c05_bicycle_10_n02835271_14433.JPEG
googlenet,2,840,NaN,bear,bicycle,c05,2120_con_dnn_c05_bicycle_10_n03792782_17502.JPEG
googlenet,2,841,NaN,airplane,airplane,c05,2121_con_dnn_c05_airplane_10_n02690373_10001.JPEG
googlenet,2,842,NaN,airplane,airplane,c05,2122_con_dnn_c05_airplane_10_n02690373_10285.JPEG
googlenet,2,843,NaN,bird,airplane,c05,2123_con_dnn_c05_airplane_10_n02690373_5789.JPEG
googlenet,2,844,NaN,bear,airplane,c05,2124_con_dnn_c05_airplane_10_n02690373_4471.JPEG
googlenet,2,845,NaN,airplane,airplane,c05,2125_con_dnn_c05_airplane_10_n02690373_8670.JPEG
googlenet,2,846,NaN,airplane,airplane,c05,2126_con_dnn_c05_airplane_10_n02690373_7496.JPEG
googlenet,2,847,NaN,airplane,airplane,c05,2127_con_dnn_c05_airplane_10_n02690373_2059.JPEG
googlenet,2,848,NaN,airplane,airplane,c05,2128_con_dnn_c05_airplane_10_n02690373_8123.JPEG
googlenet,2,849,NaN,airplane,airplane,c05,2129_con_dnn_c05_airplane_10_n02690373_20242.JPEG
googlenet,2,850,NaN,bear,airplane,c05,2130_con_dnn_c05_airplane_10_n02690373_2867.JPEG
googlenet,2,851,NaN,clock,clock,c05,2131_con_dnn_c05_clock_10_n02708093_2622.JPEG
googlenet,2,852,NaN,clock,clock,c05,2132_con_dnn_c05_clock_10_n03196217_8054.JPEG
googlenet,2,853,NaN,clock,clock,c05,2133_con_dnn_c05_clock_10_n04548280_7816.JPEG
googlenet,2,854,NaN,bottle,clock,c05,2134_con_dnn_c05_clock_10_n03196217_886.JPEG
googlenet,2,855,NaN,clock,clock,c05,2135_con_dnn_c05_clock_10_n04548280_711.JPEG
googlenet,2,856,NaN,knife,clock,c05,2136_con_dnn_c05_clock_10_n02708093_2843.JPEG
googlenet,2,857,NaN,bottle,clock,c05,2137_con_dnn_c05_clock_10_n03196217_9197.JPEG
googlenet,2,858,NaN,clock,clock,c05,2138_con_dnn_c05_clock_10_n02708093_245.JPEG
googlenet,2,859,NaN,bottle,clock,c05,2139_con_dnn_c05_clock_10_n02708093_632.JPEG
googlenet,2,860,NaN,clock,clock,c05,2140_con_dnn_c05_clock_10_n02708093_483.JPEG
googlenet,2,861,NaN,clock,oven,c05,2141_con_dnn_c05_oven_10_n04111531_5126.JPEG
googlenet,2,862,NaN,bottle,oven,c05,2142_con_dnn_c05_oven_10_n04111531_2385.JPEG
googlenet,2,863,NaN,clock,oven,c05,2143_con_dnn_c05_oven_10_n04111531_18223.JPEG
googlenet,2,864,NaN,bear,oven,c05,2144_con_dnn_c05_oven_10_n04111531_769.JPEG
googlenet,2,865,NaN,knife,oven,c05,2145_con_dnn_c05_oven_10_n04111531_5212.JPEG
googlenet,2,866,NaN,knife,oven,c05,2146_con_dnn_c05_oven_10_n04111531_13479.JPEG
googlenet,2,867,NaN,boat,oven,c05,2147_con_dnn_c05_oven_10_n04111531_1770.JPEG
googlenet,2,868,NaN,bird,oven,c05,2148_con_dnn_c05_oven_10_n04111531_10102.JPEG
googlenet,2,869,NaN,bottle,oven,c05,2149_con_dnn_c05_oven_10_n04111531_5168.JPEG
googlenet,2,870,NaN,clock,oven,c05,2150_con_dnn_c05_oven_10_n04111531_21176.JPEG
googlenet,2,871,NaN,knife,chair,c05,2151_con_dnn_c05_chair_10_n03376595_9527.JPEG
googlenet,2,872,NaN,knife,chair,c05,2152_con_dnn_c05_chair_10_n04099969_18678.JPEG
googlenet,2,873,NaN,chair,chair,c05,2153_con_dnn_c05_chair_10_n04429376_17735.JPEG
googlenet,2,874,NaN,airplane,chair,c05,2154_con_dnn_c05_chair_10_n02791124_8654.JPEG
googlenet,2,875,NaN,bottle,chair,c05,2155_con_dnn_c05_chair_10_n03376595_9482.JPEG
googlenet,2,876,NaN,chair,chair,c05,2156_con_dnn_c05_chair_10_n02791124_394.JPEG
googlenet,2,877,NaN,bottle,chair,c05,2157_con_dnn_c05_chair_10_n02791124_4551.JPEG
googlenet,2,878,NaN,bottle,chair,c05,2158_con_dnn_c05_chair_10_n02791124_4193.JPEG
googlenet,2,879,NaN,chair,chair,c05,2159_con_dnn_c05_chair_10_n04099969_12707.JPEG
googlenet,2,880,NaN,chair,chair,c05,2160_con_dnn_c05_chair_10_n03376595_4669.JPEG
googlenet,2,881,NaN,bear,bear,c05,2161_con_dnn_c05_bear_10_n02132136_24233.JPEG
googlenet,2,882,NaN,dog,bear,c05,2162_con_dnn_c05_bear_10_n02132136_3972.JPEG
googlenet,2,883,NaN,airplane,bear,c05,2163_con_dnn_c05_bear_10_n02134084_1961.JPEG
googlenet,2,884,NaN,bear,bear,c05,2164_con_dnn_c05_bear_10_n02132136_1211.JPEG
googlenet,2,885,NaN,dog,bear,c05,2165_con_dnn_c05_bear_10_n02134418_4076.JPEG
googlenet,2,886,NaN,bear,bear,c05,2166_con_dnn_c05_bear_10_n02133161_4968.JPEG
googlenet,2,887,NaN,bear,bear,c05,2167_con_dnn_c05_bear_10_n02134084_7649.JPEG
googlenet,2,888,NaN,bear,bear,c05,2168_con_dnn_c05_bear_10_n02132136_2096.JPEG
googlenet,2,889,NaN,cat,bear,c05,2169_con_dnn_c05_bear_10_n02134418_86.JPEG
googlenet,2,890,NaN,bear,bear,c05,2170_con_dnn_c05_bear_10_n02133161_12580.JPEG
googlenet,2,891,NaN,bottle,boat,c05,2171_con_dnn_c05_boat_10_n03662601_8333.JPEG
googlenet,2,892,NaN,bird,boat,c05,2172_con_dnn_c05_boat_10_n04612504_9368.JPEG
googlenet,2,893,NaN,bird,boat,c05,2173_con_dnn_c05_boat_10_n02951358_13490.JPEG
googlenet,2,894,NaN,bear,boat,c05,2174_con_dnn_c05_boat_10_n03662601_28640.JPEG
googlenet,2,895,NaN,clock,boat,c05,2175_con_dnn_c05_boat_10_n04273569_10899.JPEG
googlenet,2,896,NaN,bottle,boat,c05,2176_con_dnn_c05_boat_10_n02951358_2753.JPEG
googlenet,2,897,NaN,bird,boat,c05,2177_con_dnn_c05_boat_10_n03344393_5253.JPEG
googlenet,2,898,NaN,airplane,boat,c05,2178_con_dnn_c05_boat_10_n03662601_13523.JPEG
googlenet,2,899,NaN,cat,boat,c05,2179_con_dnn_c05_boat_10_n02951358_30269.JPEG
googlenet,2,900,NaN,bear,boat,c05,2180_con_dnn_c05_boat_10_n02951358_29557.JPEG
googlenet,2,901,NaN,elephant,cat,c05,2181_con_dnn_c05_cat_10_n02123045_2152.JPEG
googlenet,2,902,NaN,bear,cat,c05,2182_con_dnn_c05_cat_10_n02125311_3817.JPEG
googlenet,2,903,NaN,bottle,cat,c05,2183_con_dnn_c05_cat_10_n02123394_6598.JPEG
googlenet,2,904,NaN,cat,cat,c05,2184_con_dnn_c05_cat_10_n02124075_9755.JPEG
googlenet,2,905,NaN,bear,cat,c05,2185_con_dnn_c05_cat_10_n02123045_12691.JPEG
googlenet,2,906,NaN,dog,cat,c05,2186_con_dnn_c05_cat_10_n02123045_11809.JPEG
googlenet,2,907,NaN,bear,cat,c05,2187_con_dnn_c05_cat_10_n02123045_1932.JPEG
googlenet,2,908,NaN,bottle,cat,c05,2188_con_dnn_c05_cat_10_n02123159_180.JPEG
googlenet,2,909,NaN,bird,cat,c05,2189_con_dnn_c05_cat_10_n02123597_1762.JPEG
googlenet,2,910,NaN,bottle,cat,c05,2190_con_dnn_c05_cat_10_n02123045_13213.JPEG
googlenet,2,911,NaN,bottle,bottle,c05,2191_con_dnn_c05_bottle_10_n04560804_23609.JPEG
googlenet,2,912,NaN,bottle,bottle,c05,2192_con_dnn_c05_bottle_10_n03983396_3961.JPEG
googlenet,2,913,NaN,bottle,bottle,c05,2193_con_dnn_c05_bottle_10_n04560804_31955.JPEG
googlenet,2,914,NaN,bottle,bottle,c05,2194_con_dnn_c05_bottle_10_n02823428_3533.JPEG
googlenet,2,915,NaN,knife,bottle,c05,2195_con_dnn_c05_bottle_10_n04560804_6067.JPEG
googlenet,2,916,NaN,bottle,bottle,c05,2196_con_dnn_c05_bottle_10_n04560804_11768.JPEG
googlenet,2,917,NaN,bottle,bottle,c05,2197_con_dnn_c05_bottle_10_n03983396_4066.JPEG
googlenet,2,918,NaN,bottle,bottle,c05,2198_con_dnn_c05_bottle_10_n04591713_7560.JPEG
googlenet,2,919,NaN,bear,bottle,c05,2199_con_dnn_c05_bottle_10_n04557648_2506.JPEG
googlenet,2,920,NaN,bear,bottle,c05,2200_con_dnn_c05_bottle_10_n03937543_42.JPEG
googlenet,2,921,NaN,cat,truck,c05,2201_con_dnn_c05_truck_10_n03417042_652.JPEG
googlenet,2,922,NaN,knife,truck,c05,2202_con_dnn_c05_truck_10_n03417042_9238.JPEG
googlenet,2,923,NaN,cat,truck,c05,2203_con_dnn_c05_truck_10_n04467665_2240.JPEG
googlenet,2,924,NaN,bottle,truck,c05,2204_con_dnn_c05_truck_10_n04467665_22338.JPEG
googlenet,2,925,NaN,bird,truck,c05,2205_con_dnn_c05_truck_10_n03417042_4357.JPEG
googlenet,2,926,NaN,bottle,truck,c05,2206_con_dnn_c05_truck_10_n03417042_6312.JPEG
googlenet,2,927,NaN,bear,truck,c05,2207_con_dnn_c05_truck_10_n04467665_56933.JPEG
googlenet,2,928,NaN,airplane,truck,c05,2208_con_dnn_c05_truck_10_n04467665_5444.JPEG
googlenet,2,929,NaN,knife,truck,c05,2209_con_dnn_c05_truck_10_n03796401_23550.JPEG
googlenet,2,930,NaN,bottle,truck,c05,2210_con_dnn_c05_truck_10_n04467665_56594.JPEG
googlenet,2,931,NaN,airplane,car,c05,2211_con_dnn_c05_car_10_n04285008_13595.JPEG
googlenet,2,932,NaN,bear,car,c05,2212_con_dnn_c05_car_10_n02814533_12925.JPEG
googlenet,2,933,NaN,dog,car,c05,2213_con_dnn_c05_car_10_n03100240_14257.JPEG
googlenet,2,934,NaN,bear,car,c05,2214_con_dnn_c05_car_10_n02814533_14754.JPEG
googlenet,2,935,NaN,bear,car,c05,2215_con_dnn_c05_car_10_n03100240_24132.JPEG
googlenet,2,936,NaN,bottle,car,c05,2216_con_dnn_c05_car_10_n02814533_7442.JPEG
googlenet,2,937,NaN,bottle,car,c05,2217_con_dnn_c05_car_10_n03100240_600.JPEG
googlenet,2,938,NaN,bear,car,c05,2218_con_dnn_c05_car_10_n02814533_22824.JPEG
googlenet,2,939,NaN,knife,car,c05,2219_con_dnn_c05_car_10_n02814533_57972.JPEG
googlenet,2,940,NaN,bottle,car,c05,2220_con_dnn_c05_car_10_n04285008_7371.JPEG
googlenet,2,941,NaN,bird,bird,c05,2221_con_dnn_c05_bird_10_n02051845_24880.JPEG
googlenet,2,942,NaN,bottle,bird,c05,2222_con_dnn_c05_bird_10_n01530575_36320.JPEG
googlenet,2,943,NaN,clock,bird,c05,2223_con_dnn_c05_bird_10_n01601694_20445.JPEG
googlenet,2,944,NaN,bottle,bird,c05,2224_con_dnn_c05_bird_10_n02037110_13906.JPEG
googlenet,2,945,NaN,airplane,bird,c05,2225_con_dnn_c05_bird_10_n01860187_739.JPEG
googlenet,2,946,NaN,bear,bird,c05,2226_con_dnn_c05_bird_10_n01622779_4039.JPEG
googlenet,2,947,NaN,dog,bird,c05,2227_con_dnn_c05_bird_10_n01829413_8886.JPEG
googlenet,2,948,NaN,bottle,bird,c05,2228_con_dnn_c05_bird_10_n01537544_20680.JPEG
googlenet,2,949,NaN,bear,bird,c05,2229_con_dnn_c05_bird_10_n02037110_6163.JPEG
googlenet,2,950,NaN,airplane,bird,c05,2230_con_dnn_c05_bird_10_n01537544_9541.JPEG
googlenet,2,951,NaN,bear,dog,c05,2231_con_dnn_c05_dog_10_n02101388_6797.JPEG
googlenet,2,952,NaN,bear,dog,c05,2232_con_dnn_c05_dog_10_n02096437_612.JPEG
googlenet,2,953,NaN,bear,dog,c05,2233_con_dnn_c05_dog_10_n02100583_10787.JPEG
googlenet,2,954,NaN,knife,dog,c05,2234_con_dnn_c05_dog_10_n02110806_14666.JPEG
googlenet,2,955,NaN,bear,dog,c05,2235_con_dnn_c05_dog_10_n02092339_7909.JPEG
googlenet,2,956,NaN,cat,dog,c05,2236_con_dnn_c05_dog_10_n02112350_3489.JPEG
googlenet,2,957,NaN,bottle,dog,c05,2237_con_dnn_c05_dog_10_n02111277_2279.JPEG
googlenet,2,958,NaN,bear,dog,c05,2238_con_dnn_c05_dog_10_n02105855_14563.JPEG
googlenet,2,959,NaN,dog,dog,c05,2239_con_dnn_c05_dog_10_n02086079_66590.JPEG
googlenet,2,960,NaN,bottle,dog,c05,2240_con_dnn_c05_dog_10_n02096437_7860.JPEG
googlenet,2,961,NaN,airplane,knife,c03,2241_con_dnn_c03_knife_10_n03041632_8321.JPEG
googlenet,2,962,NaN,airplane,knife,c03,2242_con_dnn_c03_knife_10_n03041632_81630.JPEG
googlenet,2,963,NaN,airplane,knife,c03,2243_con_dnn_c03_knife_10_n03041632_24998.JPEG
googlenet,2,964,NaN,knife,knife,c03,2244_con_dnn_c03_knife_10_n03041632_39342.JPEG
googlenet,2,965,NaN,bear,knife,c03,2245_con_dnn_c03_knife_10_n03041632_92063.JPEG
googlenet,2,966,NaN,knife,knife,c03,2246_con_dnn_c03_knife_10_n03041632_24646.JPEG
googlenet,2,967,NaN,knife,knife,c03,2247_con_dnn_c03_knife_10_n03041632_29858.JPEG
googlenet,2,968,NaN,airplane,knife,c03,2248_con_dnn_c03_knife_10_n03041632_28710.JPEG
googlenet,2,969,NaN,bear,knife,c03,2249_con_dnn_c03_knife_10_n03041632_86783.JPEG
googlenet,2,970,NaN,bear,knife,c03,2250_con_dnn_c03_knife_10_n03041632_32048.JPEG
googlenet,2,971,NaN,knife,keyboard,c03,2251_con_dnn_c03_keyboard_10_n04505470_4467.JPEG
googlenet,2,972,NaN,airplane,keyboard,c03,2252_con_dnn_c03_keyboard_10_n03085013_23213.JPEG
googlenet,2,973,NaN,knife,keyboard,c03,2253_con_dnn_c03_keyboard_10_n04505470_2569.JPEG
googlenet,2,974,NaN,airplane,keyboard,c03,2254_con_dnn_c03_keyboard_10_n04505470_4473.JPEG
googlenet,2,975,NaN,knife,keyboard,c03,2255_con_dnn_c03_keyboard_10_n03085013_24109.JPEG
googlenet,2,976,NaN,airplane,keyboard,c03,2256_con_dnn_c03_keyboard_10_n03085013_16115.JPEG
googlenet,2,977,NaN,bottle,keyboard,c03,2257_con_dnn_c03_keyboard_10_n03085013_8157.JPEG
googlenet,2,978,NaN,bottle,keyboard,c03,2258_con_dnn_c03_keyboard_10_n04505470_4104.JPEG
googlenet,2,979,NaN,airplane,keyboard,c03,2259_con_dnn_c03_keyboard_10_n03085013_23350.JPEG
googlenet,2,980,NaN,airplane,keyboard,c03,2260_con_dnn_c03_keyboard_10_n04505470_9469.JPEG
googlenet,2,981,NaN,bear,elephant,c03,2261_con_dnn_c03_elephant_10_n02504013_1081.JPEG
googlenet,2,982,NaN,bear,elephant,c03,2262_con_dnn_c03_elephant_10_n02504013_7391.JPEG
googlenet,2,983,NaN,bird,elephant,c03,2263_con_dnn_c03_elephant_10_n02504458_12145.JPEG
googlenet,2,984,NaN,bear,elephant,c03,2264_con_dnn_c03_elephant_10_n02504013_6693.JPEG
googlenet,2,985,NaN,bear,elephant,c03,2265_con_dnn_c03_elephant_10_n02504013_7010.JPEG
googlenet,2,986,NaN,elephant,elephant,c03,2266_con_dnn_c03_elephant_10_n02504458_5137.JPEG
googlenet,2,987,NaN,bear,elephant,c03,2267_con_dnn_c03_elephant_10_n02504458_43.JPEG
googlenet,2,988,NaN,bear,elephant,c03,2268_con_dnn_c03_elephant_10_n02504013_8815.JPEG
googlenet,2,989,NaN,bird,elephant,c03,2269_con_dnn_c03_elephant_10_n02504013_4673.JPEG
googlenet,2,990,NaN,airplane,elephant,c03,2270_con_dnn_c03_elephant_10_n02504013_8926.JPEG
googlenet,2,991,NaN,clock,bicycle,c03,2271_con_dnn_c03_bicycle_10_n03792782_74429.JPEG
googlenet,2,992,NaN,bird,bicycle,c03,2272_con_dnn_c03_bicycle_10_n02835271_4434.JPEG
googlenet,2,993,NaN,bottle,bicycle,c03,2273_con_dnn_c03_bicycle_10_n02835271_6002.JPEG
googlenet,2,994,NaN,clock,bicycle,c03,2274_con_dnn_c03_bicycle_10_n02835271_8417.JPEG
googlenet,2,995,NaN,bottle,bicycle,c03,2275_con_dnn_c03_bicycle_10_n02835271_5758.JPEG
googlenet,2,996,NaN,airplane,bicycle,c03,2276_con_dnn_c03_bicycle_10_n02835271_8601.JPEG
googlenet,2,997,NaN,bird,bicycle,c03,2277_con_dnn_c03_bicycle_10_n03792782_3333.JPEG
googlenet,2,998,NaN,bird,bicycle,c03,2278_con_dnn_c03_bicycle_10_n03792782_2959.JPEG
googlenet,2,999,NaN,cat,bicycle,c03,2279_con_dnn_c03_bicycle_10_n02835271_5056.JPEG
googlenet,2,1000,NaN,bird,bicycle,c03,2280_con_dnn_c03_bicycle_10_n02835271_12656.JPEG
googlenet,2,1001,NaN,airplane,airplane,c03,2281_con_dnn_c03_airplane_10_n02690373_6716.JPEG
googlenet,2,1002,NaN,bird,airplane,c03,2282_con_dnn_c03_airplane_10_n02690373_10012.JPEG
googlenet,2,1003,NaN,airplane,airplane,c03,2283_con_dnn_c03_airplane_10_n02690373_18506.JPEG
googlenet,2,1004,NaN,airplane,airplane,c03,2284_con_dnn_c03_airplane_10_n02690373_1797.JPEG
googlenet,2,1005,NaN,airplane,airplane,c03,2285_con_dnn_c03_airplane_10_n02690373_20074.JPEG
googlenet,2,1006,NaN,bird,airplane,c03,2286_con_dnn_c03_airplane_10_n02690373_1350.JPEG
googlenet,2,1007,NaN,airplane,airplane,c03,2287_con_dnn_c03_airplane_10_n02690373_4320.JPEG
googlenet,2,1008,NaN,airplane,airplane,c03,2288_con_dnn_c03_airplane_10_n02690373_7200.JPEG
googlenet,2,1009,NaN,airplane,airplane,c03,2289_con_dnn_c03_airplane_10_n02690373_10006.JPEG
googlenet,2,1010,NaN,airplane,airplane,c03,2290_con_dnn_c03_airplane_10_n02690373_9619.JPEG
googlenet,2,1011,NaN,clock,clock,c03,2291_con_dnn_c03_clock_10_n03196217_2530.JPEG
googlenet,2,1012,NaN,bottle,clock,c03,2292_con_dnn_c03_clock_10_n03196217_970.JPEG
googlenet,2,1013,NaN,airplane,clock,c03,2293_con_dnn_c03_clock_10_n03196217_4578.JPEG
googlenet,2,1014,NaN,clock,clock,c03,2294_con_dnn_c03_clock_10_n03196217_4286.JPEG
googlenet,2,1015,NaN,clock,clock,c03,2295_con_dnn_c03_clock_10_n04548280_24096.JPEG
googlenet,2,1016,NaN,bottle,clock,c03,2296_con_dnn_c03_clock_10_n03196217_4821.JPEG
googlenet,2,1017,NaN,airplane,clock,c03,2297_con_dnn_c03_clock_10_n02708093_8073.JPEG
googlenet,2,1018,NaN,knife,clock,c03,2298_con_dnn_c03_clock_10_n02708093_2020.JPEG
googlenet,2,1019,NaN,clock,clock,c03,2299_con_dnn_c03_clock_10_n02708093_7069.JPEG
googlenet,2,1020,NaN,airplane,clock,c03,2300_con_dnn_c03_clock_10_n02708093_1291.JPEG
googlenet,2,1021,NaN,bottle,oven,c03,2301_con_dnn_c03_oven_10_n04111531_7356.JPEG
googlenet,2,1022,NaN,airplane,oven,c03,2302_con_dnn_c03_oven_10_n04111531_5246.JPEG
googlenet,2,1023,NaN,bird,oven,c03,2303_con_dnn_c03_oven_10_n04111531_3976.JPEG
googlenet,2,1024,NaN,knife,oven,c03,2304_con_dnn_c03_oven_10_n04111531_1778.JPEG
googlenet,2,1025,NaN,bird,oven,c03,2305_con_dnn_c03_oven_10_n04111531_8750.JPEG
googlenet,2,1026,NaN,airplane,oven,c03,2306_con_dnn_c03_oven_10_n04111531_2739.JPEG
googlenet,2,1027,NaN,bear,oven,c03,2307_con_dnn_c03_oven_10_n04111531_3805.JPEG
googlenet,2,1028,NaN,knife,oven,c03,2308_con_dnn_c03_oven_10_n04111531_10199.JPEG
googlenet,2,1029,NaN,airplane,oven,c03,2309_con_dnn_c03_oven_10_n04111531_409.JPEG
googlenet,2,1030,NaN,knife,oven,c03,2310_con_dnn_c03_oven_10_n04111531_10313.JPEG
googlenet,2,1031,NaN,cat,chair,c03,2311_con_dnn_c03_chair_10_n04429376_1528.JPEG
googlenet,2,1032,NaN,knife,chair,c03,2312_con_dnn_c03_chair_10_n04429376_23230.JPEG
googlenet,2,1033,NaN,knife,chair,c03,2313_con_dnn_c03_chair_10_n02791124_1287.JPEG
googlenet,2,1034,NaN,clock,chair,c03,2314_con_dnn_c03_chair_10_n04429376_10442.JPEG
googlenet,2,1035,NaN,bottle,chair,c03,2315_con_dnn_c03_chair_10_n04099969_8886.JPEG
googlenet,2,1036,NaN,knife,chair,c03,2316_con_dnn_c03_chair_10_n04099969_7391.JPEG
googlenet,2,1037,NaN,bottle,chair,c03,2317_con_dnn_c03_chair_10_n04099969_17360.JPEG
googlenet,2,1038,NaN,knife,chair,c03,2318_con_dnn_c03_chair_10_n03376595_15723.JPEG
googlenet,2,1039,NaN,bird,chair,c03,2319_con_dnn_c03_chair_10_n02791124_3898.JPEG
googlenet,2,1040,NaN,knife,chair,c03,2320_con_dnn_c03_chair_10_n02791124_17062.JPEG
googlenet,2,1041,NaN,airplane,bear,c03,2321_con_dnn_c03_bear_10_n02133161_226.JPEG
googlenet,2,1042,NaN,airplane,bear,c03,2322_con_dnn_c03_bear_10_n02133161_1356.JPEG
googlenet,2,1043,NaN,bottle,bear,c03,2323_con_dnn_c03_bear_10_n02133161_1990.JPEG
googlenet,2,1044,NaN,bird,bear,c03,2324_con_dnn_c03_bear_10_n02134418_5056.JPEG
googlenet,2,1045,NaN,airplane,bear,c03,2325_con_dnn_c03_bear_10_n02132136_15407.JPEG
googlenet,2,1046,NaN,bear,bear,c03,2326_con_dnn_c03_bear_10_n02132136_10468.JPEG
googlenet,2,1047,NaN,clock,bear,c03,2327_con_dnn_c03_bear_10_n02134418_2138.JPEG
googlenet,2,1048,NaN,airplane,bear,c03,2328_con_dnn_c03_bear_10_n02134084_9956.JPEG
googlenet,2,1049,NaN,bear,bear,c03,2329_con_dnn_c03_bear_10_n02134084_8574.JPEG
googlenet,2,1050,NaN,airplane,bear,c03,2330_con_dnn_c03_bear_10_n02134084_2247.JPEG
googlenet,2,1051,NaN,airplane,boat,c03,2331_con_dnn_c03_boat_10_n03662601_8104.JPEG
googlenet,2,1052,NaN,clock,boat,c03,2332_con_dnn_c03_boat_10_n04612504_3430.JPEG
googlenet,2,1053,NaN,bird,boat,c03,2333_con_dnn_c03_boat_10_n04273569_14486.JPEG
googlenet,2,1054,NaN,bird,boat,c03,2334_con_dnn_c03_boat_10_n02951358_10192.JPEG
googlenet,2,1055,NaN,boat,boat,c03,2335_con_dnn_c03_boat_10_n04273569_928.JPEG
googlenet,2,1056,NaN,bird,boat,c03,2336_con_dnn_c03_boat_10_n03662601_23675.JPEG
googlenet,2,1057,NaN,airplane,boat,c03,2337_con_dnn_c03_boat_10_n03662601_15713.JPEG
googlenet,2,1058,NaN,airplane,boat,c03,2338_con_dnn_c03_boat_10_n04612504_22060.JPEG
googlenet,2,1059,NaN,bird,boat,c03,2339_con_dnn_c03_boat_10_n03344393_5084.JPEG
googlenet,2,1060,NaN,clock,boat,c03,2340_con_dnn_c03_boat_10_n03662601_16412.JPEG
googlenet,2,1061,NaN,bird,cat,c03,2341_con_dnn_c03_cat_10_n02123159_1565.JPEG
googlenet,2,1062,NaN,bear,cat,c03,2342_con_dnn_c03_cat_10_n02123045_13545.JPEG
googlenet,2,1063,NaN,airplane,cat,c03,2343_con_dnn_c03_cat_10_n02123394_9611.JPEG
googlenet,2,1064,NaN,airplane,cat,c03,2344_con_dnn_c03_cat_10_n02123597_274.JPEG
googlenet,2,1065,NaN,clock,cat,c03,2345_con_dnn_c03_cat_10_n02123597_13378.JPEG
googlenet,2,1066,NaN,airplane,cat,c03,2346_con_dnn_c03_cat_10_n02123394_10349.JPEG
googlenet,2,1067,NaN,knife,cat,c03,2347_con_dnn_c03_cat_10_n02123597_6582.JPEG
googlenet,2,1068,NaN,clock,cat,c03,2348_con_dnn_c03_cat_10_n02125311_22908.JPEG
googlenet,2,1069,NaN,airplane,cat,c03,2349_con_dnn_c03_cat_10_n02123597_680.JPEG
googlenet,2,1070,NaN,bird,cat,c03,2350_con_dnn_c03_cat_10_n02125311_23804.JPEG
googlenet,2,1071,NaN,knife,bottle,c03,2351_con_dnn_c03_bottle_10_n03983396_17752.JPEG
googlenet,2,1072,NaN,clock,bottle,c03,2352_con_dnn_c03_bottle_10_n03937543_6208.JPEG
googlenet,2,1073,NaN,bird,bottle,c03,2353_con_dnn_c03_bottle_10_n03937543_5174.JPEG
googlenet,2,1074,NaN,bottle,bottle,c03,2354_con_dnn_c03_bottle_10_n03983396_10671.JPEG
googlenet,2,1075,NaN,clock,bottle,c03,2355_con_dnn_c03_bottle_10_n04591713_2144.JPEG
googlenet,2,1076,NaN,bottle,bottle,c03,2356_con_dnn_c03_bottle_10_n03983396_10364.JPEG
googlenet,2,1077,NaN,bottle,bottle,c03,2357_con_dnn_c03_bottle_10_n03937543_4069.JPEG
googlenet,2,1078,NaN,knife,bottle,c03,2358_con_dnn_c03_bottle_10_n04579145_3324.JPEG
googlenet,2,1079,NaN,bird,bottle,c03,2359_con_dnn_c03_bottle_10_n03937543_26.JPEG
googlenet,2,1080,NaN,knife,bottle,c03,2360_con_dnn_c03_bottle_10_n03937543_8922.JPEG
googlenet,2,1081,NaN,bird,truck,c03,2361_con_dnn_c03_truck_10_n04467665_840.JPEG
googlenet,2,1082,NaN,bottle,truck,c03,2362_con_dnn_c03_truck_10_n03796401_17633.JPEG
googlenet,2,1083,NaN,airplane,truck,c03,2363_con_dnn_c03_truck_10_n04467665_48953.JPEG
googlenet,2,1084,NaN,boat,truck,c03,2364_con_dnn_c03_truck_10_n03417042_10908.JPEG
googlenet,2,1085,NaN,cat,truck,c03,2365_con_dnn_c03_truck_10_n03417042_8248.JPEG
googlenet,2,1086,NaN,bear,truck,c03,2366_con_dnn_c03_truck_10_n04467665_22731.JPEG
googlenet,2,1087,NaN,knife,truck,c03,2367_con_dnn_c03_truck_10_n03796401_21362.JPEG
googlenet,2,1088,NaN,airplane,truck,c03,2368_con_dnn_c03_truck_10_n03796401_23886.JPEG
googlenet,2,1089,NaN,airplane,truck,c03,2369_con_dnn_c03_truck_10_n03796401_22137.JPEG
googlenet,2,1090,NaN,knife,truck,c03,2370_con_dnn_c03_truck_10_n03417042_22152.JPEG
googlenet,2,1091,NaN,bear,car,c03,2371_con_dnn_c03_car_10_n03100240_2591.JPEG
googlenet,2,1092,NaN,bear,car,c03,2372_con_dnn_c03_car_10_n03100240_15407.JPEG
googlenet,2,1093,NaN,bear,car,c03,2373_con_dnn_c03_car_10_n03100240_7517.JPEG
googlenet,2,1094,NaN,airplane,car,c03,2374_con_dnn_c03_car_10_n02814533_8490.JPEG
googlenet,2,1095,NaN,bear,car,c03,2375_con_dnn_c03_car_10_n02814533_34080.JPEG
googlenet,2,1096,NaN,airplane,car,c03,2376_con_dnn_c03_car_10_n03100240_5196.JPEG
googlenet,2,1097,NaN,bear,car,c03,2377_con_dnn_c03_car_10_n02814533_45050.JPEG
googlenet,2,1098,NaN,bird,car,c03,2378_con_dnn_c03_car_10_n02814533_37870.JPEG
googlenet,2,1099,NaN,airplane,car,c03,2379_con_dnn_c03_car_10_n02814533_6400.JPEG
googlenet,2,1100,NaN,airplane,car,c03,2380_con_dnn_c03_car_10_n04285008_10944.JPEG
googlenet,2,1101,NaN,bear,bird,c03,2381_con_dnn_c03_bird_10_n01833805_10349.JPEG
googlenet,2,1102,NaN,airplane,bird,c03,2382_con_dnn_c03_bird_10_n01795545_6262.JPEG
googlenet,2,1103,NaN,airplane,bird,c03,2383_con_dnn_c03_bird_10_n01531178_22971.JPEG
googlenet,2,1104,NaN,knife,bird,c03,2384_con_dnn_c03_bird_10_n02018795_13690.JPEG
googlenet,2,1105,NaN,bear,bird,c03,2385_con_dnn_c03_bird_10_n02027492_8549.JPEG
googlenet,2,1106,NaN,clock,bird,c03,2386_con_dnn_c03_bird_10_n01601694_11980.JPEG
googlenet,2,1107,NaN,airplane,bird,c03,2387_con_dnn_c03_bird_10_n02002556_7433.JPEG
googlenet,2,1108,NaN,airplane,bird,c03,2388_con_dnn_c03_bird_10_n02037110_23901.JPEG
googlenet,2,1109,NaN,airplane,bird,c03,2389_con_dnn_c03_bird_10_n01622779_2274.JPEG
googlenet,2,1110,NaN,bird,bird,c03,2390_con_dnn_c03_bird_10_n01582220_8934.JPEG
googlenet,2,1111,NaN,dog,dog,c03,2391_con_dnn_c03_dog_10_n02100735_4813.JPEG
googlenet,2,1112,NaN,bird,dog,c03,2392_con_dnn_c03_dog_10_n02100583_20620.JPEG
googlenet,2,1113,NaN,bird,dog,c03,2393_con_dnn_c03_dog_10_n02088364_3529.JPEG
googlenet,2,1114,NaN,bird,dog,c03,2394_con_dnn_c03_dog_10_n02086079_5132.JPEG
googlenet,2,1115,NaN,bear,dog,c03,2395_con_dnn_c03_dog_10_n02086240_2254.JPEG
googlenet,2,1116,NaN,airplane,dog,c03,2396_con_dnn_c03_dog_10_n02106382_9771.JPEG
googlenet,2,1117,NaN,bird,dog,c03,2397_con_dnn_c03_dog_10_n02108422_4889.JPEG
googlenet,2,1118,NaN,airplane,dog,c03,2398_con_dnn_c03_dog_10_n02089973_1841.JPEG
googlenet,2,1119,NaN,airplane,dog,c03,2399_con_dnn_c03_dog_10_n02100583_9018.JPEG
googlenet,2,1120,NaN,airplane,dog,c03,2400_con_dnn_c03_dog_10_n02102040_2594.JPEG
googlenet,2,1121,NaN,bird,knife,c01,2401_con_dnn_c01_knife_10_n03041632_39739.JPEG
googlenet,2,1122,NaN,airplane,knife,c01,2402_con_dnn_c01_knife_10_n03041632_45622.JPEG
googlenet,2,1123,NaN,bird,knife,c01,2403_con_dnn_c01_knife_10_n03041632_54732.JPEG
googlenet,2,1124,NaN,airplane,knife,c01,2404_con_dnn_c01_knife_10_n03041632_18532.JPEG
googlenet,2,1125,NaN,clock,knife,c01,2405_con_dnn_c01_knife_10_n03041632_12949.JPEG
googlenet,2,1126,NaN,bird,knife,c01,2406_con_dnn_c01_knife_10_n03041632_206.JPEG
googlenet,2,1127,NaN,airplane,knife,c01,2407_con_dnn_c01_knife_10_n03041632_10999.JPEG
googlenet,2,1128,NaN,airplane,knife,c01,2408_con_dnn_c01_knife_10_n03041632_10796.JPEG
googlenet,2,1129,NaN,airplane,knife,c01,2409_con_dnn_c01_knife_10_n03041632_29427.JPEG
googlenet,2,1130,NaN,bird,knife,c01,2410_con_dnn_c01_knife_10_n03041632_94155.JPEG
googlenet,2,1131,NaN,airplane,keyboard,c01,2411_con_dnn_c01_keyboard_10_n03085013_18756.JPEG
googlenet,2,1132,NaN,bird,keyboard,c01,2412_con_dnn_c01_keyboard_10_n03085013_24442.JPEG
googlenet,2,1133,NaN,airplane,keyboard,c01,2413_con_dnn_c01_keyboard_10_n04505470_763.JPEG
googlenet,2,1134,NaN,clock,keyboard,c01,2414_con_dnn_c01_keyboard_10_n03085013_8865.JPEG
googlenet,2,1135,NaN,airplane,keyboard,c01,2415_con_dnn_c01_keyboard_10_n03085013_24615.JPEG
googlenet,2,1136,NaN,bird,keyboard,c01,2416_con_dnn_c01_keyboard_10_n04505470_2825.JPEG
googlenet,2,1137,NaN,bird,keyboard,c01,2417_con_dnn_c01_keyboard_10_n04505470_5153.JPEG
googlenet,2,1138,NaN,airplane,keyboard,c01,2418_con_dnn_c01_keyboard_10_n04505470_2019.JPEG
googlenet,2,1139,NaN,bird,keyboard,c01,2419_con_dnn_c01_keyboard_10_n03085013_23519.JPEG
googlenet,2,1140,NaN,bird,keyboard,c01,2420_con_dnn_c01_keyboard_10_n03085013_5812.JPEG
googlenet,2,1141,NaN,bird,elephant,c01,2421_con_dnn_c01_elephant_10_n02504458_7207.JPEG
googlenet,2,1142,NaN,airplane,elephant,c01,2422_con_dnn_c01_elephant_10_n02504458_6281.JPEG
googlenet,2,1143,NaN,bird,elephant,c01,2423_con_dnn_c01_elephant_10_n02504013_354.JPEG
googlenet,2,1144,NaN,airplane,elephant,c01,2424_con_dnn_c01_elephant_10_n02504458_1431.JPEG
googlenet,2,1145,NaN,bird,elephant,c01,2425_con_dnn_c01_elephant_10_n02504013_1855.JPEG
googlenet,2,1146,NaN,airplane,elephant,c01,2426_con_dnn_c01_elephant_10_n02504013_9393.JPEG
googlenet,2,1147,NaN,bird,elephant,c01,2427_con_dnn_c01_elephant_10_n02504458_5274.JPEG
googlenet,2,1148,NaN,airplane,elephant,c01,2428_con_dnn_c01_elephant_10_n02504013_1103.JPEG
googlenet,2,1149,NaN,airplane,elephant,c01,2429_con_dnn_c01_elephant_10_n02504013_6465.JPEG
googlenet,2,1150,NaN,clock,elephant,c01,2430_con_dnn_c01_elephant_10_n02504013_6757.JPEG
googlenet,2,1151,NaN,clock,bicycle,c01,2431_con_dnn_c01_bicycle_10_n02835271_597.JPEG
googlenet,2,1152,NaN,airplane,bicycle,c01,2432_con_dnn_c01_bicycle_10_n02835271_9202.JPEG
googlenet,2,1153,NaN,airplane,bicycle,c01,2433_con_dnn_c01_bicycle_10_n02835271_2505.JPEG
googlenet,2,1154,NaN,bird,bicycle,c01,2434_con_dnn_c01_bicycle_10_n03792782_922.JPEG
googlenet,2,1155,NaN,airplane,bicycle,c01,2435_con_dnn_c01_bicycle_10_n03792782_14984.JPEG
googlenet,2,1156,NaN,bird,bicycle,c01,2436_con_dnn_c01_bicycle_10_n03792782_29108.JPEG
googlenet,2,1157,NaN,airplane,bicycle,c01,2437_con_dnn_c01_bicycle_10_n02835271_12981.JPEG
googlenet,2,1158,NaN,clock,bicycle,c01,2438_con_dnn_c01_bicycle_10_n03792782_49889.JPEG
googlenet,2,1159,NaN,airplane,bicycle,c01,2439_con_dnn_c01_bicycle_10_n03792782_15.JPEG
googlenet,2,1160,NaN,airplane,bicycle,c01,2440_con_dnn_c01_bicycle_10_n02835271_19955.JPEG
googlenet,2,1161,NaN,airplane,airplane,c01,2441_con_dnn_c01_airplane_10_n02690373_763.JPEG
googlenet,2,1162,NaN,bird,airplane,c01,2442_con_dnn_c01_airplane_10_n02690373_7355.JPEG
googlenet,2,1163,NaN,airplane,airplane,c01,2443_con_dnn_c01_airplane_10_n02690373_3054.JPEG
googlenet,2,1164,NaN,bird,airplane,c01,2444_con_dnn_c01_airplane_10_n02690373_4440.JPEG
googlenet,2,1165,NaN,airplane,airplane,c01,2445_con_dnn_c01_airplane_10_n02690373_8446.JPEG
googlenet,2,1166,NaN,airplane,airplane,c01,2446_con_dnn_c01_airplane_10_n02690373_1169.JPEG
googlenet,2,1167,NaN,airplane,airplane,c01,2447_con_dnn_c01_airplane_10_n02690373_7107.JPEG
googlenet,2,1168,NaN,airplane,airplane,c01,2448_con_dnn_c01_airplane_10_n02690373_3059.JPEG
googlenet,2,1169,NaN,airplane,airplane,c01,2449_con_dnn_c01_airplane_10_n02690373_7210.JPEG
googlenet,2,1170,NaN,airplane,airplane,c01,2450_con_dnn_c01_airplane_10_n02690373_4243.JPEG
googlenet,2,1171,NaN,airplane,clock,c01,2451_con_dnn_c01_clock_10_n04548280_10162.JPEG
googlenet,2,1172,NaN,airplane,clock,c01,2452_con_dnn_c01_clock_10_n03196217_9589.JPEG
googlenet,2,1173,NaN,clock,clock,c01,2453_con_dnn_c01_clock_10_n02708093_6936.JPEG
googlenet,2,1174,NaN,airplane,clock,c01,2454_con_dnn_c01_clock_10_n04548280_5201.JPEG
googlenet,2,1175,NaN,clock,clock,c01,2455_con_dnn_c01_clock_10_n04548280_668.JPEG
googlenet,2,1176,NaN,bird,clock,c01,2456_con_dnn_c01_clock_10_n03196217_9786.JPEG
googlenet,2,1177,NaN,bird,clock,c01,2457_con_dnn_c01_clock_10_n03196217_6706.JPEG
googlenet,2,1178,NaN,cat,clock,c01,2458_con_dnn_c01_clock_10_n04548280_4947.JPEG
googlenet,2,1179,NaN,bird,clock,c01,2459_con_dnn_c01_clock_10_n04548280_6394.JPEG
googlenet,2,1180,NaN,bird,clock,c01,2460_con_dnn_c01_clock_10_n02708093_3399.JPEG
googlenet,2,1181,NaN,bird,oven,c01,2461_con_dnn_c01_oven_10_n04111531_5897.JPEG
googlenet,2,1182,NaN,bird,oven,c01,2462_con_dnn_c01_oven_10_n04111531_3671.JPEG
googlenet,2,1183,NaN,airplane,oven,c01,2463_con_dnn_c01_oven_10_n04111531_18592.JPEG
googlenet,2,1184,NaN,airplane,oven,c01,2464_con_dnn_c01_oven_10_n04111531_4879.JPEG
googlenet,2,1185,NaN,knife,oven,c01,2465_con_dnn_c01_oven_10_n04111531_17917.JPEG
googlenet,2,1186,NaN,bird,oven,c01,2466_con_dnn_c01_oven_10_n04111531_3570.JPEG
