subj,session,trial,rt,object_response,category,condition,imagename
vgg,7,1,NaN,knife,knife,c100,7681_con_dnn_c100_knife_10_n03041632_4879.JPEG
vgg,7,2,NaN,knife,knife,c100,7682_con_dnn_c100_knife_10_n03041632_47410.JPEG
vgg,7,3,NaN,knife,knife,c100,7683_con_dnn_c100_knife_10_n03041632_2184.JPEG
vgg,7,4,NaN,knife,knife,c100,7684_con_dnn_c100_knife_10_n03041632_2630.JPEG
vgg,7,5,NaN,knife,knife,c100,7685_con_dnn_c100_knife_10_n03041632_41381.JPEG
vgg,7,6,NaN,knife,knife,c100,7686_con_dnn_c100_knife_10_n03041632_7279.JPEG
vgg,7,7,NaN,knife,knife,c100,7687_con_dnn_c100_knife_10_n03041632_4808.JPEG
vgg,7,8,NaN,knife,knife,c100,7688_con_dnn_c100_knife_10_n03041632_20433.JPEG
vgg,7,9,NaN,knife,knife,c100,7689_con_dnn_c100_knife_10_n03041632_21590.JPEG
vgg,7,10,NaN,knife,knife,c100,7690_con_dnn_c100_knife_10_n03041632_38535.JPEG
vgg,7,11,NaN,keyboard,keyboard,c100,7691_con_dnn_c100_keyboard_10_n04505470_6426.JPEG
vgg,7,12,NaN,keyboard,keyboard,c100,7692_con_dnn_c100_keyboard_10_n04505470_10558.JPEG
vgg,7,13,NaN,keyboard,keyboard,c100,7693_con_dnn_c100_keyboard_10_n04505470_3286.JPEG
vgg,7,14,NaN,keyboard,keyboard,c100,7694_con_dnn_c100_keyboard_10_n03085013_18621.JPEG
vgg,7,15,NaN,keyboard,keyboard,c100,7695_con_dnn_c100_keyboard_10_n04505470_4507.JPEG
vgg,7,16,NaN,keyboard,keyboard,c100,7696_con_dnn_c100_keyboard_10_n04505470_4944.JPEG
vgg,7,17,NaN,keyboard,keyboard,c100,7697_con_dnn_c100_keyboard_10_n03085013_23843.JPEG
vgg,7,18,NaN,keyboard,keyboard,c100,7698_con_dnn_c100_keyboard_10_n04505470_2608.JPEG
vgg,7,19,NaN,keyboard,keyboard,c100,7699_con_dnn_c100_keyboard_10_n03085013_25443.JPEG
vgg,7,20,NaN,keyboard,keyboard,c100,7700_con_dnn_c100_keyboard_10_n03085013_18979.JPEG
vgg,7,21,NaN,dog,elephant,c100,7701_con_dnn_c100_elephant_10_n02504458_3066.JPEG
vgg,7,22,NaN,elephant,elephant,c100,7702_con_dnn_c100_elephant_10_n02504458_6130.JPEG
vgg,7,23,NaN,elephant,elephant,c100,7703_con_dnn_c100_elephant_10_n02504013_6034.JPEG
vgg,7,24,NaN,elephant,elephant,c100,7704_con_dnn_c100_elephant_10_n02504013_817.JPEG
vgg,7,25,NaN,elephant,elephant,c100,7705_con_dnn_c100_elephant_10_n02504013_6121.JPEG
vgg,7,26,NaN,elephant,elephant,c100,7706_con_dnn_c100_elephant_10_n02504013_10390.JPEG
vgg,7,27,NaN,elephant,elephant,c100,7707_con_dnn_c100_elephant_10_n02504013_242.JPEG
vgg,7,28,NaN,elephant,elephant,c100,7708_con_dnn_c100_elephant_10_n02504013_2924.JPEG
vgg,7,29,NaN,elephant,elephant,c100,7709_con_dnn_c100_elephant_10_n02504458_2494.JPEG
vgg,7,30,NaN,elephant,elephant,c100,7710_con_dnn_c100_elephant_10_n02504013_1844.JPEG
vgg,7,31,NaN,bicycle,bicycle,c100,7711_con_dnn_c100_bicycle_10_n02835271_8617.JPEG
vgg,7,32,NaN,bicycle,bicycle,c100,7712_con_dnn_c100_bicycle_10_n02835271_14820.JPEG
vgg,7,33,NaN,bicycle,bicycle,c100,7713_con_dnn_c100_bicycle_10_n02835271_14228.JPEG
vgg,7,34,NaN,bicycle,bicycle,c100,7714_con_dnn_c100_bicycle_10_n02835271_8109.JPEG
vgg,7,35,NaN,bicycle,bicycle,c100,7715_con_dnn_c100_bicycle_10_n03792782_50904.JPEG
vgg,7,36,NaN,bicycle,bicycle,c100,7716_con_dnn_c100_bicycle_10_n03792782_42345.JPEG
vgg,7,37,NaN,bicycle,bicycle,c100,7717_con_dnn_c100_bicycle_10_n03792782_4659.JPEG
vgg,7,38,NaN,bicycle,bicycle,c100,7718_con_dnn_c100_bicycle_10_n02835271_6804.JPEG
vgg,7,39,NaN,bicycle,bicycle,c100,7719_con_dnn_c100_bicycle_10_n02835271_3529.JPEG
vgg,7,40,NaN,bicycle,bicycle,c100,7720_con_dnn_c100_bicycle_10_n03792782_59022.JPEG
vgg,7,41,NaN,airplane,airplane,c100,7721_con_dnn_c100_airplane_10_n02690373_5724.JPEG
vgg,7,42,NaN,airplane,airplane,c100,7722_con_dnn_c100_airplane_10_n02690373_2675.JPEG
vgg,7,43,NaN,airplane,airplane,c100,7723_con_dnn_c100_airplane_10_n02690373_2447.JPEG
vgg,7,44,NaN,airplane,airplane,c100,7724_con_dnn_c100_airplane_10_n02690373_3753.JPEG
vgg,7,45,NaN,airplane,airplane,c100,7725_con_dnn_c100_airplane_10_n02690373_3899.JPEG
vgg,7,46,NaN,airplane,airplane,c100,7726_con_dnn_c100_airplane_10_n02690373_6834.JPEG
vgg,7,47,NaN,airplane,airplane,c100,7727_con_dnn_c100_airplane_10_n02690373_7229.JPEG
vgg,7,48,NaN,airplane,airplane,c100,7728_con_dnn_c100_airplane_10_n02690373_3709.JPEG
vgg,7,49,NaN,airplane,airplane,c100,7729_con_dnn_c100_airplane_10_n02690373_9175.JPEG
vgg,7,50,NaN,airplane,airplane,c100,7730_con_dnn_c100_airplane_10_n02690373_3639.JPEG
vgg,7,51,NaN,clock,clock,c100,7731_con_dnn_c100_clock_10_n02708093_6672.JPEG
vgg,7,52,NaN,clock,clock,c100,7732_con_dnn_c100_clock_10_n04548280_43.JPEG
vgg,7,53,NaN,clock,clock,c100,7733_con_dnn_c100_clock_10_n04548280_3854.JPEG
vgg,7,54,NaN,clock,clock,c100,7734_con_dnn_c100_clock_10_n04548280_5337.JPEG
vgg,7,55,NaN,clock,clock,c100,7735_con_dnn_c100_clock_10_n04548280_3161.JPEG
vgg,7,56,NaN,clock,clock,c100,7736_con_dnn_c100_clock_10_n02708093_145.JPEG
vgg,7,57,NaN,clock,clock,c100,7737_con_dnn_c100_clock_10_n03196217_1790.JPEG
vgg,7,58,NaN,clock,clock,c100,7738_con_dnn_c100_clock_10_n03196217_1255.JPEG
vgg,7,59,NaN,clock,clock,c100,7739_con_dnn_c100_clock_10_n03196217_775.JPEG
vgg,7,60,NaN,clock,clock,c100,7740_con_dnn_c100_clock_10_n04548280_3153.JPEG
vgg,7,61,NaN,oven,oven,c100,7741_con_dnn_c100_oven_10_n04111531_6120.JPEG
vgg,7,62,NaN,oven,oven,c100,7742_con_dnn_c100_oven_10_n04111531_2116.JPEG
vgg,7,63,NaN,oven,oven,c100,7743_con_dnn_c100_oven_10_n04111531_17006.JPEG
vgg,7,64,NaN,oven,oven,c100,7744_con_dnn_c100_oven_10_n04111531_6590.JPEG
vgg,7,65,NaN,chair,oven,c100,7745_con_dnn_c100_oven_10_n04111531_5578.JPEG
vgg,7,66,NaN,oven,oven,c100,7746_con_dnn_c100_oven_10_n04111531_2771.JPEG
vgg,7,67,NaN,oven,oven,c100,7747_con_dnn_c100_oven_10_n04111531_9429.JPEG
vgg,7,68,NaN,oven,oven,c100,7748_con_dnn_c100_oven_10_n04111531_1826.JPEG
vgg,7,69,NaN,oven,oven,c100,7749_con_dnn_c100_oven_10_n04111531_3193.JPEG
vgg,7,70,NaN,oven,oven,c100,7750_con_dnn_c100_oven_10_n04111531_6489.JPEG
vgg,7,71,NaN,chair,chair,c100,7751_con_dnn_c100_chair_10_n02791124_4780.JPEG
vgg,7,72,NaN,chair,chair,c100,7752_con_dnn_c100_chair_10_n03376595_13578.JPEG
vgg,7,73,NaN,chair,chair,c100,7753_con_dnn_c100_chair_10_n04099969_1829.JPEG
vgg,7,74,NaN,chair,chair,c100,7754_con_dnn_c100_chair_10_n02791124_499.JPEG
vgg,7,75,NaN,chair,chair,c100,7755_con_dnn_c100_chair_10_n02791124_5201.JPEG
vgg,7,76,NaN,chair,chair,c100,7756_con_dnn_c100_chair_10_n03376595_9093.JPEG
vgg,7,77,NaN,chair,chair,c100,7757_con_dnn_c100_chair_10_n02791124_992.JPEG
vgg,7,78,NaN,chair,chair,c100,7758_con_dnn_c100_chair_10_n04099969_40892.JPEG
vgg,7,79,NaN,chair,chair,c100,7759_con_dnn_c100_chair_10_n04429376_6480.JPEG
vgg,7,80,NaN,chair,chair,c100,7760_con_dnn_c100_chair_10_n03376595_9226.JPEG
vgg,7,81,NaN,bear,bear,c100,7761_con_dnn_c100_bear_10_n02132136_18743.JPEG
vgg,7,82,NaN,bear,bear,c100,7762_con_dnn_c100_bear_10_n02134084_4726.JPEG
vgg,7,83,NaN,bear,bear,c100,7763_con_dnn_c100_bear_10_n02132136_10684.JPEG
vgg,7,84,NaN,bear,bear,c100,7764_con_dnn_c100_bear_10_n02134084_1536.JPEG
vgg,7,85,NaN,bear,bear,c100,7765_con_dnn_c100_bear_10_n02134418_2495.JPEG
vgg,7,86,NaN,bear,bear,c100,7766_con_dnn_c100_bear_10_n02134418_5139.JPEG
vgg,7,87,NaN,bear,bear,c100,7767_con_dnn_c100_bear_10_n02132136_10769.JPEG
vgg,7,88,NaN,bear,bear,c100,7768_con_dnn_c100_bear_10_n02133161_10715.JPEG
vgg,7,89,NaN,bear,bear,c100,7769_con_dnn_c100_bear_10_n02132136_24204.JPEG
vgg,7,90,NaN,bear,bear,c100,7770_con_dnn_c100_bear_10_n02134418_4559.JPEG
vgg,7,91,NaN,boat,boat,c100,7771_con_dnn_c100_boat_10_n03344393_2919.JPEG
vgg,7,92,NaN,boat,boat,c100,7772_con_dnn_c100_boat_10_n03344393_6324.JPEG
vgg,7,93,NaN,boat,boat,c100,7773_con_dnn_c100_boat_10_n03344393_5588.JPEG
vgg,7,94,NaN,boat,boat,c100,7774_con_dnn_c100_boat_10_n02951358_4189.JPEG
vgg,7,95,NaN,boat,boat,c100,7775_con_dnn_c100_boat_10_n03344393_8504.JPEG
vgg,7,96,NaN,boat,boat,c100,7776_con_dnn_c100_boat_10_n02951358_31518.JPEG
vgg,7,97,NaN,boat,boat,c100,7777_con_dnn_c100_boat_10_n03344393_6950.JPEG
vgg,7,98,NaN,boat,boat,c100,7778_con_dnn_c100_boat_10_n04273569_14506.JPEG
vgg,7,99,NaN,boat,boat,c100,7779_con_dnn_c100_boat_10_n04273569_29319.JPEG
vgg,7,100,NaN,boat,boat,c100,7780_con_dnn_c100_boat_10_n04273569_3130.JPEG
vgg,7,101,NaN,cat,cat,c100,7781_con_dnn_c100_cat_10_n02123394_2167.JPEG
vgg,7,102,NaN,cat,cat,c100,7782_con_dnn_c100_cat_10_n02123597_9893.JPEG
vgg,7,103,NaN,cat,cat,c100,7783_con_dnn_c100_cat_10_n02123045_9404.JPEG
vgg,7,104,NaN,cat,cat,c100,7784_con_dnn_c100_cat_10_n02125311_13098.JPEG
vgg,7,105,NaN,cat,cat,c100,7785_con_dnn_c100_cat_10_n02123394_287.JPEG
vgg,7,106,NaN,cat,cat,c100,7786_con_dnn_c100_cat_10_n02123597_1708.JPEG
vgg,7,107,NaN,cat,cat,c100,7787_con_dnn_c100_cat_10_n02123159_2465.JPEG
vgg,7,108,NaN,cat,cat,c100,7788_con_dnn_c100_cat_10_n02123159_5960.JPEG
vgg,7,109,NaN,cat,cat,c100,7789_con_dnn_c100_cat_10_n02124075_2854.JPEG
vgg,7,110,NaN,cat,cat,c100,7790_con_dnn_c100_cat_10_n02123159_7967.JPEG
vgg,7,111,NaN,bottle,bottle,c100,7791_con_dnn_c100_bottle_10_n04560804_13773.JPEG
vgg,7,112,NaN,bottle,bottle,c100,7792_con_dnn_c100_bottle_10_n02823428_7357.JPEG
vgg,7,113,NaN,bottle,bottle,c100,7793_con_dnn_c100_bottle_10_n03983396_4713.JPEG
vgg,7,114,NaN,bottle,bottle,c100,7794_con_dnn_c100_bottle_10_n04560804_27690.JPEG
vgg,7,115,NaN,bottle,bottle,c100,7795_con_dnn_c100_bottle_10_n04591713_7835.JPEG
vgg,7,116,NaN,keyboard,bottle,c100,7796_con_dnn_c100_bottle_10_n03937543_4386.JPEG
vgg,7,117,NaN,bottle,bottle,c100,7797_con_dnn_c100_bottle_10_n03937543_3094.JPEG
vgg,7,118,NaN,bottle,bottle,c100,7798_con_dnn_c100_bottle_10_n02823428_14980.JPEG
vgg,7,119,NaN,bottle,bottle,c100,7799_con_dnn_c100_bottle_10_n03983396_2760.JPEG
vgg,7,120,NaN,bottle,bottle,c100,7800_con_dnn_c100_bottle_10_n04557648_9408.JPEG
vgg,7,121,NaN,truck,truck,c100,7801_con_dnn_c100_truck_10_n04467665_707.JPEG
vgg,7,122,NaN,truck,truck,c100,7802_con_dnn_c100_truck_10_n04467665_28313.JPEG
vgg,7,123,NaN,truck,truck,c100,7803_con_dnn_c100_truck_10_n04467665_67081.JPEG
vgg,7,124,NaN,truck,truck,c100,7804_con_dnn_c100_truck_10_n03796401_5669.JPEG
vgg,7,125,NaN,truck,truck,c100,7805_con_dnn_c100_truck_10_n03796401_6596.JPEG
vgg,7,126,NaN,truck,truck,c100,7806_con_dnn_c100_truck_10_n03417042_5905.JPEG
vgg,7,127,NaN,truck,truck,c100,7807_con_dnn_c100_truck_10_n03417042_10520.JPEG
vgg,7,128,NaN,truck,truck,c100,7808_con_dnn_c100_truck_10_n04467665_47560.JPEG
vgg,7,129,NaN,truck,truck,c100,7809_con_dnn_c100_truck_10_n03796401_5.JPEG
vgg,7,130,NaN,truck,truck,c100,7810_con_dnn_c100_truck_10_n03796401_2457.JPEG
vgg,7,131,NaN,car,car,c100,7811_con_dnn_c100_car_10_n03100240_4840.JPEG
vgg,7,132,NaN,car,car,c100,7812_con_dnn_c100_car_10_n04285008_5641.JPEG
vgg,7,133,NaN,car,car,c100,7813_con_dnn_c100_car_10_n02814533_7232.JPEG
vgg,7,134,NaN,car,car,c100,7814_con_dnn_c100_car_10_n03100240_7300.JPEG
vgg,7,135,NaN,car,car,c100,7815_con_dnn_c100_car_10_n03100240_5356.JPEG
vgg,7,136,NaN,car,car,c100,7816_con_dnn_c100_car_10_n03100240_6892.JPEG
vgg,7,137,NaN,car,car,c100,7817_con_dnn_c100_car_10_n02814533_24244.JPEG
vgg,7,138,NaN,car,car,c100,7818_con_dnn_c100_car_10_n02814533_4446.JPEG
vgg,7,139,NaN,car,car,c100,7819_con_dnn_c100_car_10_n03100240_5136.JPEG
vgg,7,140,NaN,car,car,c100,7820_con_dnn_c100_car_10_n02814533_1871.JPEG
vgg,7,141,NaN,clock,bird,c100,7821_con_dnn_c100_bird_10_n02027492_8940.JPEG
vgg,7,142,NaN,bird,bird,c100,7822_con_dnn_c100_bird_10_n01514859_1678.JPEG
vgg,7,143,NaN,bird,bird,c100,7823_con_dnn_c100_bird_10_n01622779_6745.JPEG
vgg,7,144,NaN,bird,bird,c100,7824_con_dnn_c100_bird_10_n02009229_4493.JPEG
vgg,7,145,NaN,bird,bird,c100,7825_con_dnn_c100_bird_10_n01531178_17967.JPEG
vgg,7,146,NaN,bird,bird,c100,7826_con_dnn_c100_bird_10_n01558993_4438.JPEG
vgg,7,147,NaN,bird,bird,c100,7827_con_dnn_c100_bird_10_n01592084_4940.JPEG
vgg,7,148,NaN,bird,bird,c100,7828_con_dnn_c100_bird_10_n01531178_52649.JPEG
vgg,7,149,NaN,bird,bird,c100,7829_con_dnn_c100_bird_10_n01534433_2073.JPEG
vgg,7,150,NaN,bird,bird,c100,7830_con_dnn_c100_bird_10_n01601694_6503.JPEG
vgg,7,151,NaN,dog,dog,c100,7831_con_dnn_c100_dog_10_n02086910_2918.JPEG
vgg,7,152,NaN,dog,dog,c100,7832_con_dnn_c100_dog_10_n02099267_4688.JPEG
vgg,7,153,NaN,dog,dog,c100,7833_con_dnn_c100_dog_10_n02102040_4124.JPEG
vgg,7,154,NaN,dog,dog,c100,7834_con_dnn_c100_dog_10_n02097209_5267.JPEG
vgg,7,155,NaN,dog,dog,c100,7835_con_dnn_c100_dog_10_n02106550_1024.JPEG
vgg,7,156,NaN,dog,dog,c100,7836_con_dnn_c100_dog_10_n02107574_3837.JPEG
vgg,7,157,NaN,dog,dog,c100,7837_con_dnn_c100_dog_10_n02097130_1464.JPEG
vgg,7,158,NaN,dog,dog,c100,7838_con_dnn_c100_dog_10_n02111500_701.JPEG
vgg,7,159,NaN,dog,dog,c100,7839_con_dnn_c100_dog_10_n02113023_98.JPEG
vgg,7,160,NaN,dog,dog,c100,7840_con_dnn_c100_dog_10_n02102177_5006.JPEG
vgg,7,161,NaN,knife,knife,c50,7841_con_dnn_c50_knife_10_n03041632_992.JPEG
vgg,7,162,NaN,knife,knife,c50,7842_con_dnn_c50_knife_10_n03041632_29827.JPEG
vgg,7,163,NaN,knife,knife,c50,7843_con_dnn_c50_knife_10_n03041632_13518.JPEG
vgg,7,164,NaN,knife,knife,c50,7844_con_dnn_c50_knife_10_n03041632_82878.JPEG
vgg,7,165,NaN,chair,knife,c50,7845_con_dnn_c50_knife_10_n03041632_24113.JPEG
vgg,7,166,NaN,knife,knife,c50,7846_con_dnn_c50_knife_10_n03041632_91582.JPEG
vgg,7,167,NaN,knife,knife,c50,7847_con_dnn_c50_knife_10_n03041632_51617.JPEG
vgg,7,168,NaN,bicycle,knife,c50,7848_con_dnn_c50_knife_10_n03041632_96714.JPEG
vgg,7,169,NaN,knife,knife,c50,7849_con_dnn_c50_knife_10_n03041632_14801.JPEG
vgg,7,170,NaN,knife,knife,c50,7850_con_dnn_c50_knife_10_n03041632_50332.JPEG
vgg,7,171,NaN,keyboard,keyboard,c50,7851_con_dnn_c50_keyboard_10_n04505470_1724.JPEG
vgg,7,172,NaN,keyboard,keyboard,c50,7852_con_dnn_c50_keyboard_10_n04505470_5172.JPEG
vgg,7,173,NaN,keyboard,keyboard,c50,7853_con_dnn_c50_keyboard_10_n04505470_848.JPEG
vgg,7,174,NaN,keyboard,keyboard,c50,7854_con_dnn_c50_keyboard_10_n04505470_9741.JPEG
vgg,7,175,NaN,keyboard,keyboard,c50,7855_con_dnn_c50_keyboard_10_n03085013_24416.JPEG
vgg,7,176,NaN,keyboard,keyboard,c50,7856_con_dnn_c50_keyboard_10_n03085013_25875.JPEG
vgg,7,177,NaN,keyboard,keyboard,c50,7857_con_dnn_c50_keyboard_10_n03085013_20891.JPEG
vgg,7,178,NaN,keyboard,keyboard,c50,7858_con_dnn_c50_keyboard_10_n04505470_276.JPEG
vgg,7,179,NaN,keyboard,keyboard,c50,7859_con_dnn_c50_keyboard_10_n04505470_6638.JPEG
vgg,7,180,NaN,keyboard,keyboard,c50,7860_con_dnn_c50_keyboard_10_n04505470_6361.JPEG
vgg,7,181,NaN,elephant,elephant,c50,7861_con_dnn_c50_elephant_10_n02504458_2041.JPEG
vgg,7,182,NaN,elephant,elephant,c50,7862_con_dnn_c50_elephant_10_n02504458_9213.JPEG
vgg,7,183,NaN,elephant,elephant,c50,7863_con_dnn_c50_elephant_10_n02504013_3903.JPEG
vgg,7,184,NaN,elephant,elephant,c50,7864_con_dnn_c50_elephant_10_n02504013_2205.JPEG
vgg,7,185,NaN,elephant,elephant,c50,7865_con_dnn_c50_elephant_10_n02504013_6471.JPEG
vgg,7,186,NaN,elephant,elephant,c50,7866_con_dnn_c50_elephant_10_n02504013_5893.JPEG
vgg,7,187,NaN,elephant,elephant,c50,7867_con_dnn_c50_elephant_10_n02504013_6742.JPEG
vgg,7,188,NaN,elephant,elephant,c50,7868_con_dnn_c50_elephant_10_n02504458_5652.JPEG
vgg,7,189,NaN,chair,elephant,c50,7869_con_dnn_c50_elephant_10_n02504013_10311.JPEG
vgg,7,190,NaN,elephant,elephant,c50,7870_con_dnn_c50_elephant_10_n02504013_1719.JPEG
vgg,7,191,NaN,bicycle,bicycle,c50,7871_con_dnn_c50_bicycle_10_n03792782_7745.JPEG
vgg,7,192,NaN,bicycle,bicycle,c50,7872_con_dnn_c50_bicycle_10_n03792782_4704.JPEG
vgg,7,193,NaN,bicycle,bicycle,c50,7873_con_dnn_c50_bicycle_10_n03792782_9699.JPEG
vgg,7,194,NaN,bicycle,bicycle,c50,7874_con_dnn_c50_bicycle_10_n03792782_471.JPEG
vgg,7,195,NaN,bicycle,bicycle,c50,7875_con_dnn_c50_bicycle_10_n03792782_14931.JPEG
vgg,7,196,NaN,bicycle,bicycle,c50,7876_con_dnn_c50_bicycle_10_n03792782_5133.JPEG
vgg,7,197,NaN,bicycle,bicycle,c50,7877_con_dnn_c50_bicycle_10_n03792782_16408.JPEG
vgg,7,198,NaN,bicycle,bicycle,c50,7878_con_dnn_c50_bicycle_10_n02835271_20104.JPEG
vgg,7,199,NaN,bicycle,bicycle,c50,7879_con_dnn_c50_bicycle_10_n03792782_4210.JPEG
vgg,7,200,NaN,bicycle,bicycle,c50,7880_con_dnn_c50_bicycle_10_n03792782_210.JPEG
vgg,7,201,NaN,airplane,airplane,c50,7881_con_dnn_c50_airplane_10_n02690373_4851.JPEG
vgg,7,202,NaN,airplane,airplane,c50,7882_con_dnn_c50_airplane_10_n02690373_1418.JPEG
vgg,7,203,NaN,airplane,airplane,c50,7883_con_dnn_c50_airplane_10_n02690373_5748.JPEG
vgg,7,204,NaN,airplane,airplane,c50,7884_con_dnn_c50_airplane_10_n02690373_4434.JPEG
vgg,7,205,NaN,airplane,airplane,c50,7885_con_dnn_c50_airplane_10_n02690373_8653.JPEG
vgg,7,206,NaN,airplane,airplane,c50,7886_con_dnn_c50_airplane_10_n02690373_757.JPEG
vgg,7,207,NaN,airplane,airplane,c50,7887_con_dnn_c50_airplane_10_n02690373_3613.JPEG
vgg,7,208,NaN,airplane,airplane,c50,7888_con_dnn_c50_airplane_10_n02690373_4943.JPEG
vgg,7,209,NaN,airplane,airplane,c50,7889_con_dnn_c50_airplane_10_n02690373_4507.JPEG
vgg,7,210,NaN,airplane,airplane,c50,7890_con_dnn_c50_airplane_10_n02690373_5662.JPEG
vgg,7,211,NaN,clock,clock,c50,7891_con_dnn_c50_clock_10_n03196217_5627.JPEG
vgg,7,212,NaN,clock,clock,c50,7892_con_dnn_c50_clock_10_n04548280_3080.JPEG
vgg,7,213,NaN,clock,clock,c50,7893_con_dnn_c50_clock_10_n02708093_906.JPEG
vgg,7,214,NaN,clock,clock,c50,7894_con_dnn_c50_clock_10_n03196217_421.JPEG
vgg,7,215,NaN,clock,clock,c50,7895_con_dnn_c50_clock_10_n03196217_5120.JPEG
vgg,7,216,NaN,clock,clock,c50,7896_con_dnn_c50_clock_10_n03196217_4600.JPEG
vgg,7,217,NaN,clock,clock,c50,7897_con_dnn_c50_clock_10_n04548280_3394.JPEG
vgg,7,218,NaN,clock,clock,c50,7898_con_dnn_c50_clock_10_n04548280_8246.JPEG
vgg,7,219,NaN,clock,clock,c50,7899_con_dnn_c50_clock_10_n04548280_8646.JPEG
vgg,7,220,NaN,clock,clock,c50,7900_con_dnn_c50_clock_10_n04548280_4391.JPEG
vgg,7,221,NaN,chair,oven,c50,7901_con_dnn_c50_oven_10_n04111531_7728.JPEG
vgg,7,222,NaN,chair,oven,c50,7902_con_dnn_c50_oven_10_n04111531_21404.JPEG
vgg,7,223,NaN,oven,oven,c50,7903_con_dnn_c50_oven_10_n04111531_6955.JPEG
vgg,7,224,NaN,oven,oven,c50,7904_con_dnn_c50_oven_10_n04111531_81.JPEG
vgg,7,225,NaN,oven,oven,c50,7905_con_dnn_c50_oven_10_n04111531_7355.JPEG
vgg,7,226,NaN,oven,oven,c50,7906_con_dnn_c50_oven_10_n04111531_9962.JPEG
vgg,7,227,NaN,oven,oven,c50,7907_con_dnn_c50_oven_10_n04111531_1662.JPEG
vgg,7,228,NaN,oven,oven,c50,7908_con_dnn_c50_oven_10_n04111531_10436.JPEG
vgg,7,229,NaN,oven,oven,c50,7909_con_dnn_c50_oven_10_n04111531_12952.JPEG
vgg,7,230,NaN,oven,oven,c50,7910_con_dnn_c50_oven_10_n04111531_1674.JPEG
vgg,7,231,NaN,chair,chair,c50,7911_con_dnn_c50_chair_10_n02791124_5401.JPEG
vgg,7,232,NaN,chair,chair,c50,7912_con_dnn_c50_chair_10_n03376595_9900.JPEG
vgg,7,233,NaN,chair,chair,c50,7913_con_dnn_c50_chair_10_n02791124_16010.JPEG
vgg,7,234,NaN,chair,chair,c50,7914_con_dnn_c50_chair_10_n02791124_3281.JPEG
vgg,7,235,NaN,chair,chair,c50,7915_con_dnn_c50_chair_10_n04099969_25613.JPEG
vgg,7,236,NaN,chair,chair,c50,7916_con_dnn_c50_chair_10_n04429376_7050.JPEG
vgg,7,237,NaN,chair,chair,c50,7917_con_dnn_c50_chair_10_n02791124_4566.JPEG
vgg,7,238,NaN,chair,chair,c50,7918_con_dnn_c50_chair_10_n04099969_6001.JPEG
vgg,7,239,NaN,chair,chair,c50,7919_con_dnn_c50_chair_10_n02791124_307.JPEG
vgg,7,240,NaN,chair,chair,c50,7920_con_dnn_c50_chair_10_n02791124_13570.JPEG
vgg,7,241,NaN,bear,bear,c50,7921_con_dnn_c50_bear_10_n02134084_6746.JPEG
vgg,7,242,NaN,bear,bear,c50,7922_con_dnn_c50_bear_10_n02134418_4908.JPEG
vgg,7,243,NaN,bear,bear,c50,7923_con_dnn_c50_bear_10_n02133161_5637.JPEG
vgg,7,244,NaN,bear,bear,c50,7924_con_dnn_c50_bear_10_n02134418_2545.JPEG
vgg,7,245,NaN,bear,bear,c50,7925_con_dnn_c50_bear_10_n02132136_23248.JPEG
vgg,7,246,NaN,bear,bear,c50,7926_con_dnn_c50_bear_10_n02134084_6702.JPEG
vgg,7,247,NaN,bear,bear,c50,7927_con_dnn_c50_bear_10_n02134418_4637.JPEG
vgg,7,248,NaN,bear,bear,c50,7928_con_dnn_c50_bear_10_n02134084_1207.JPEG
vgg,7,249,NaN,bear,bear,c50,7929_con_dnn_c50_bear_10_n02132136_360.JPEG
vgg,7,250,NaN,bear,bear,c50,7930_con_dnn_c50_bear_10_n02133161_2355.JPEG
vgg,7,251,NaN,boat,boat,c50,7931_con_dnn_c50_boat_10_n03344393_7330.JPEG
vgg,7,252,NaN,boat,boat,c50,7932_con_dnn_c50_boat_10_n02951358_35985.JPEG
vgg,7,253,NaN,boat,boat,c50,7933_con_dnn_c50_boat_10_n02951358_14069.JPEG
vgg,7,254,NaN,boat,boat,c50,7934_con_dnn_c50_boat_10_n03344393_9531.JPEG
vgg,7,255,NaN,boat,boat,c50,7935_con_dnn_c50_boat_10_n03344393_6849.JPEG
vgg,7,256,NaN,boat,boat,c50,7936_con_dnn_c50_boat_10_n03344393_6727.JPEG
vgg,7,257,NaN,boat,boat,c50,7937_con_dnn_c50_boat_10_n04612504_17309.JPEG
vgg,7,258,NaN,boat,boat,c50,7938_con_dnn_c50_boat_10_n02951358_12081.JPEG
vgg,7,259,NaN,boat,boat,c50,7939_con_dnn_c50_boat_10_n03344393_9929.JPEG
vgg,7,260,NaN,boat,boat,c50,7940_con_dnn_c50_boat_10_n03662601_21918.JPEG
vgg,7,261,NaN,cat,cat,c50,7941_con_dnn_c50_cat_10_n02123159_6052.JPEG
vgg,7,262,NaN,cat,cat,c50,7942_con_dnn_c50_cat_10_n02123394_6296.JPEG
vgg,7,263,NaN,cat,cat,c50,7943_con_dnn_c50_cat_10_n02123045_2330.JPEG
vgg,7,264,NaN,cat,cat,c50,7944_con_dnn_c50_cat_10_n02124075_5224.JPEG
vgg,7,265,NaN,cat,cat,c50,7945_con_dnn_c50_cat_10_n02123159_7181.JPEG
vgg,7,266,NaN,cat,cat,c50,7946_con_dnn_c50_cat_10_n02123045_689.JPEG
vgg,7,267,NaN,cat,cat,c50,7947_con_dnn_c50_cat_10_n02123597_4537.JPEG
vgg,7,268,NaN,dog,cat,c50,7948_con_dnn_c50_cat_10_n02123045_9465.JPEG
vgg,7,269,NaN,cat,cat,c50,7949_con_dnn_c50_cat_10_n02123394_2787.JPEG
vgg,7,270,NaN,dog,cat,c50,7950_con_dnn_c50_cat_10_n02125311_9555.JPEG
vgg,7,271,NaN,bottle,bottle,c50,7951_con_dnn_c50_bottle_10_n02823428_1045.JPEG
vgg,7,272,NaN,bottle,bottle,c50,7952_con_dnn_c50_bottle_10_n03983396_10881.JPEG
vgg,7,273,NaN,bottle,bottle,c50,7953_con_dnn_c50_bottle_10_n03983396_5284.JPEG
vgg,7,274,NaN,bottle,bottle,c50,7954_con_dnn_c50_bottle_10_n04560804_156.JPEG
vgg,7,275,NaN,bottle,bottle,c50,7955_con_dnn_c50_bottle_10_n03983396_12307.JPEG
vgg,7,276,NaN,bottle,bottle,c50,7956_con_dnn_c50_bottle_10_n04560804_28861.JPEG
vgg,7,277,NaN,oven,bottle,c50,7957_con_dnn_c50_bottle_10_n04591713_2058.JPEG
vgg,7,278,NaN,bottle,bottle,c50,7958_con_dnn_c50_bottle_10_n03983396_278.JPEG
vgg,7,279,NaN,bottle,bottle,c50,7959_con_dnn_c50_bottle_10_n04560804_15492.JPEG
vgg,7,280,NaN,bottle,bottle,c50,7960_con_dnn_c50_bottle_10_n04591713_11370.JPEG
vgg,7,281,NaN,truck,truck,c50,7961_con_dnn_c50_truck_10_n04467665_44850.JPEG
vgg,7,282,NaN,truck,truck,c50,7962_con_dnn_c50_truck_10_n04467665_71074.JPEG
vgg,7,283,NaN,truck,truck,c50,7963_con_dnn_c50_truck_10_n03417042_1262.JPEG
vgg,7,284,NaN,truck,truck,c50,7964_con_dnn_c50_truck_10_n03796401_21490.JPEG
vgg,7,285,NaN,car,truck,c50,7965_con_dnn_c50_truck_10_n04467665_65113.JPEG
vgg,7,286,NaN,truck,truck,c50,7966_con_dnn_c50_truck_10_n04467665_71248.JPEG
vgg,7,287,NaN,truck,truck,c50,7967_con_dnn_c50_truck_10_n04467665_68923.JPEG
vgg,7,288,NaN,truck,truck,c50,7968_con_dnn_c50_truck_10_n04467665_34440.JPEG
vgg,7,289,NaN,truck,truck,c50,7969_con_dnn_c50_truck_10_n03417042_26782.JPEG
vgg,7,290,NaN,truck,truck,c50,7970_con_dnn_c50_truck_10_n03796401_6503.JPEG
vgg,7,291,NaN,truck,car,c50,7971_con_dnn_c50_car_10_n02814533_52866.JPEG
vgg,7,292,NaN,car,car,c50,7972_con_dnn_c50_car_10_n03100240_10215.JPEG
vgg,7,293,NaN,car,car,c50,7973_con_dnn_c50_car_10_n04285008_2363.JPEG
vgg,7,294,NaN,truck,car,c50,7974_con_dnn_c50_car_10_n04285008_3922.JPEG
vgg,7,295,NaN,car,car,c50,7975_con_dnn_c50_car_10_n02814533_38295.JPEG
vgg,7,296,NaN,car,car,c50,7976_con_dnn_c50_car_10_n04285008_12189.JPEG
vgg,7,297,NaN,car,car,c50,7977_con_dnn_c50_car_10_n02814533_55326.JPEG
vgg,7,298,NaN,car,car,c50,7978_con_dnn_c50_car_10_n02814533_93338.JPEG
vgg,7,299,NaN,car,car,c50,7979_con_dnn_c50_car_10_n04285008_1785.JPEG
vgg,7,300,NaN,car,car,c50,7980_con_dnn_c50_car_10_n04285008_11186.JPEG
vgg,7,301,NaN,bird,bird,c50,7981_con_dnn_c50_bird_10_n02009229_7497.JPEG
vgg,7,302,NaN,bird,bird,c50,7982_con_dnn_c50_bird_10_n02033041_2722.JPEG
vgg,7,303,NaN,bird,bird,c50,7983_con_dnn_c50_bird_10_n02033041_6041.JPEG
vgg,7,304,NaN,bird,bird,c50,7984_con_dnn_c50_bird_10_n01828970_5397.JPEG
vgg,7,305,NaN,bird,bird,c50,7985_con_dnn_c50_bird_10_n02051845_17122.JPEG
vgg,7,306,NaN,bird,bird,c50,7986_con_dnn_c50_bird_10_n01828970_7955.JPEG
vgg,7,307,NaN,bird,bird,c50,7987_con_dnn_c50_bird_10_n01530575_9762.JPEG
vgg,7,308,NaN,bird,bird,c50,7988_con_dnn_c50_bird_10_n01833805_22540.JPEG
vgg,7,309,NaN,bird,bird,c50,7989_con_dnn_c50_bird_10_n01860187_263.JPEG
vgg,7,310,NaN,bird,bird,c50,7990_con_dnn_c50_bird_10_n01537544_851.JPEG
vgg,7,311,NaN,dog,dog,c50,7991_con_dnn_c50_dog_10_n02091032_4641.JPEG
vgg,7,312,NaN,dog,dog,c50,7992_con_dnn_c50_dog_10_n02106550_5222.JPEG
vgg,7,313,NaN,dog,dog,c50,7993_con_dnn_c50_dog_10_n02107908_6214.JPEG
vgg,7,314,NaN,dog,dog,c50,7994_con_dnn_c50_dog_10_n02100877_4764.JPEG
vgg,7,315,NaN,dog,dog,c50,7995_con_dnn_c50_dog_10_n02097130_10741.JPEG
vgg,7,316,NaN,dog,dog,c50,7996_con_dnn_c50_dog_10_n02100735_8203.JPEG
vgg,7,317,NaN,dog,dog,c50,7997_con_dnn_c50_dog_10_n02102177_4523.JPEG
vgg,7,318,NaN,dog,dog,c50,7998_con_dnn_c50_dog_10_n02095889_974.JPEG
vgg,7,319,NaN,dog,dog,c50,7999_con_dnn_c50_dog_10_n02113023_6546.JPEG
vgg,7,320,NaN,dog,dog,c50,8000_con_dnn_c50_dog_10_n02109525_58699.JPEG
vgg,7,321,NaN,knife,knife,c30,8001_con_dnn_c30_knife_10_n03041632_1884.JPEG
vgg,7,322,NaN,knife,knife,c30,8002_con_dnn_c30_knife_10_n03041632_20662.JPEG
vgg,7,323,NaN,knife,knife,c30,8003_con_dnn_c30_knife_10_n03041632_927.JPEG
vgg,7,324,NaN,knife,knife,c30,8004_con_dnn_c30_knife_10_n03041632_4590.JPEG
vgg,7,325,NaN,bottle,knife,c30,8005_con_dnn_c30_knife_10_n03041632_23736.JPEG
vgg,7,326,NaN,bottle,knife,c30,8006_con_dnn_c30_knife_10_n03041632_55140.JPEG
vgg,7,327,NaN,knife,knife,c30,8007_con_dnn_c30_knife_10_n03041632_42162.JPEG
vgg,7,328,NaN,bottle,knife,c30,8008_con_dnn_c30_knife_10_n03041632_31301.JPEG
vgg,7,329,NaN,knife,knife,c30,8009_con_dnn_c30_knife_10_n03041632_4214.JPEG
vgg,7,330,NaN,boat,knife,c30,8010_con_dnn_c30_knife_10_n03041632_11475.JPEG
vgg,7,331,NaN,keyboard,keyboard,c30,8011_con_dnn_c30_keyboard_10_n04505470_4878.JPEG
vgg,7,332,NaN,keyboard,keyboard,c30,8012_con_dnn_c30_keyboard_10_n04505470_4902.JPEG
vgg,7,333,NaN,keyboard,keyboard,c30,8013_con_dnn_c30_keyboard_10_n04505470_3981.JPEG
vgg,7,334,NaN,keyboard,keyboard,c30,8014_con_dnn_c30_keyboard_10_n03085013_10659.JPEG
vgg,7,335,NaN,keyboard,keyboard,c30,8015_con_dnn_c30_keyboard_10_n04505470_5098.JPEG
vgg,7,336,NaN,keyboard,keyboard,c30,8016_con_dnn_c30_keyboard_10_n04505470_284.JPEG
vgg,7,337,NaN,keyboard,keyboard,c30,8017_con_dnn_c30_keyboard_10_n04505470_3122.JPEG
vgg,7,338,NaN,keyboard,keyboard,c30,8018_con_dnn_c30_keyboard_10_n04505470_6379.JPEG
vgg,7,339,NaN,keyboard,keyboard,c30,8019_con_dnn_c30_keyboard_10_n04505470_5561.JPEG
vgg,7,340,NaN,keyboard,keyboard,c30,8020_con_dnn_c30_keyboard_10_n04505470_4994.JPEG
vgg,7,341,NaN,elephant,elephant,c30,8021_con_dnn_c30_elephant_10_n02504013_5829.JPEG
vgg,7,342,NaN,elephant,elephant,c30,8022_con_dnn_c30_elephant_10_n02504013_2125.JPEG
vgg,7,343,NaN,elephant,elephant,c30,8023_con_dnn_c30_elephant_10_n02504458_1563.JPEG
vgg,7,344,NaN,elephant,elephant,c30,8024_con_dnn_c30_elephant_10_n02504013_3282.JPEG
vgg,7,345,NaN,elephant,elephant,c30,8025_con_dnn_c30_elephant_10_n02504013_9881.JPEG
vgg,7,346,NaN,elephant,elephant,c30,8026_con_dnn_c30_elephant_10_n02504458_1137.JPEG
vgg,7,347,NaN,elephant,elephant,c30,8027_con_dnn_c30_elephant_10_n02504013_2770.JPEG
vgg,7,348,NaN,elephant,elephant,c30,8028_con_dnn_c30_elephant_10_n02504013_13422.JPEG
vgg,7,349,NaN,elephant,elephant,c30,8029_con_dnn_c30_elephant_10_n02504013_846.JPEG
vgg,7,350,NaN,elephant,elephant,c30,8030_con_dnn_c30_elephant_10_n02504458_6025.JPEG
vgg,7,351,NaN,bicycle,bicycle,c30,8031_con_dnn_c30_bicycle_10_n03792782_7802.JPEG
vgg,7,352,NaN,bicycle,bicycle,c30,8032_con_dnn_c30_bicycle_10_n02835271_8212.JPEG
vgg,7,353,NaN,bicycle,bicycle,c30,8033_con_dnn_c30_bicycle_10_n03792782_17324.JPEG
vgg,7,354,NaN,bicycle,bicycle,c30,8034_con_dnn_c30_bicycle_10_n03792782_6102.JPEG
vgg,7,355,NaN,bicycle,bicycle,c30,8035_con_dnn_c30_bicycle_10_n02835271_7976.JPEG
vgg,7,356,NaN,bicycle,bicycle,c30,8036_con_dnn_c30_bicycle_10_n03792782_52581.JPEG
vgg,7,357,NaN,bicycle,bicycle,c30,8037_con_dnn_c30_bicycle_10_n03792782_975.JPEG
vgg,7,358,NaN,bicycle,bicycle,c30,8038_con_dnn_c30_bicycle_10_n03792782_38365.JPEG
vgg,7,359,NaN,bicycle,bicycle,c30,8039_con_dnn_c30_bicycle_10_n03792782_6413.JPEG
vgg,7,360,NaN,bicycle,bicycle,c30,8040_con_dnn_c30_bicycle_10_n03792782_3296.JPEG
vgg,7,361,NaN,airplane,airplane,c30,8041_con_dnn_c30_airplane_10_n02690373_7239.JPEG
vgg,7,362,NaN,airplane,airplane,c30,8042_con_dnn_c30_airplane_10_n02690373_349.JPEG
vgg,7,363,NaN,airplane,airplane,c30,8043_con_dnn_c30_airplane_10_n02690373_5870.JPEG
vgg,7,364,NaN,airplane,airplane,c30,8044_con_dnn_c30_airplane_10_n02690373_18845.JPEG
vgg,7,365,NaN,airplane,airplane,c30,8045_con_dnn_c30_airplane_10_n02690373_5869.JPEG
vgg,7,366,NaN,airplane,airplane,c30,8046_con_dnn_c30_airplane_10_n02690373_7624.JPEG
vgg,7,367,NaN,airplane,airplane,c30,8047_con_dnn_c30_airplane_10_n02690373_4552.JPEG
vgg,7,368,NaN,airplane,airplane,c30,8048_con_dnn_c30_airplane_10_n02690373_5344.JPEG
vgg,7,369,NaN,airplane,airplane,c30,8049_con_dnn_c30_airplane_10_n02690373_7487.JPEG
vgg,7,370,NaN,airplane,airplane,c30,8050_con_dnn_c30_airplane_10_n02690373_6978.JPEG
vgg,7,371,NaN,clock,clock,c30,8051_con_dnn_c30_clock_10_n04548280_5527.JPEG
vgg,7,372,NaN,clock,clock,c30,8052_con_dnn_c30_clock_10_n04548280_8883.JPEG
vgg,7,373,NaN,clock,clock,c30,8053_con_dnn_c30_clock_10_n02708093_5728.JPEG
vgg,7,374,NaN,clock,clock,c30,8054_con_dnn_c30_clock_10_n02708093_3146.JPEG
vgg,7,375,NaN,clock,clock,c30,8055_con_dnn_c30_clock_10_n04548280_1032.JPEG
vgg,7,376,NaN,clock,clock,c30,8056_con_dnn_c30_clock_10_n04548280_821.JPEG
vgg,7,377,NaN,truck,clock,c30,8057_con_dnn_c30_clock_10_n02708093_993.JPEG
vgg,7,378,NaN,clock,clock,c30,8058_con_dnn_c30_clock_10_n03196217_1021.JPEG
vgg,7,379,NaN,clock,clock,c30,8059_con_dnn_c30_clock_10_n03196217_7012.JPEG
vgg,7,380,NaN,clock,clock,c30,8060_con_dnn_c30_clock_10_n04548280_1202.JPEG
vgg,7,381,NaN,oven,oven,c30,8061_con_dnn_c30_oven_10_n04111531_9178.JPEG
vgg,7,382,NaN,oven,oven,c30,8062_con_dnn_c30_oven_10_n04111531_15683.JPEG
vgg,7,383,NaN,oven,oven,c30,8063_con_dnn_c30_oven_10_n04111531_7329.JPEG
vgg,7,384,NaN,dog,oven,c30,8064_con_dnn_c30_oven_10_n04111531_15616.JPEG
vgg,7,385,NaN,oven,oven,c30,8065_con_dnn_c30_oven_10_n04111531_2023.JPEG
vgg,7,386,NaN,bottle,oven,c30,8066_con_dnn_c30_oven_10_n04111531_10419.JPEG
vgg,7,387,NaN,oven,oven,c30,8067_con_dnn_c30_oven_10_n04111531_17922.JPEG
vgg,7,388,NaN,truck,oven,c30,8068_con_dnn_c30_oven_10_n04111531_4795.JPEG
vgg,7,389,NaN,bottle,oven,c30,8069_con_dnn_c30_oven_10_n04111531_5888.JPEG
vgg,7,390,NaN,oven,oven,c30,8070_con_dnn_c30_oven_10_n04111531_22138.JPEG
vgg,7,391,NaN,chair,chair,c30,8071_con_dnn_c30_chair_10_n03376595_3222.JPEG
vgg,7,392,NaN,chair,chair,c30,8072_con_dnn_c30_chair_10_n02791124_9736.JPEG
vgg,7,393,NaN,chair,chair,c30,8073_con_dnn_c30_chair_10_n03376595_584.JPEG
vgg,7,394,NaN,chair,chair,c30,8074_con_dnn_c30_chair_10_n03376595_774.JPEG
vgg,7,395,NaN,chair,chair,c30,8075_con_dnn_c30_chair_10_n04099969_8604.JPEG
vgg,7,396,NaN,chair,chair,c30,8076_con_dnn_c30_chair_10_n04099969_2233.JPEG
vgg,7,397,NaN,chair,chair,c30,8077_con_dnn_c30_chair_10_n02791124_1390.JPEG
vgg,7,398,NaN,chair,chair,c30,8078_con_dnn_c30_chair_10_n02791124_3184.JPEG
vgg,7,399,NaN,chair,chair,c30,8079_con_dnn_c30_chair_10_n02791124_8323.JPEG
vgg,7,400,NaN,chair,chair,c30,8080_con_dnn_c30_chair_10_n02791124_2861.JPEG
vgg,7,401,NaN,bear,bear,c30,8081_con_dnn_c30_bear_10_n02132136_8896.JPEG
vgg,7,402,NaN,bear,bear,c30,8082_con_dnn_c30_bear_10_n02132136_20680.JPEG
vgg,7,403,NaN,bear,bear,c30,8083_con_dnn_c30_bear_10_n02133161_548.JPEG
vgg,7,404,NaN,dog,bear,c30,8084_con_dnn_c30_bear_10_n02134084_4433.JPEG
vgg,7,405,NaN,bear,bear,c30,8085_con_dnn_c30_bear_10_n02132136_14625.JPEG
vgg,7,406,NaN,bear,bear,c30,8086_con_dnn_c30_bear_10_n02132136_786.JPEG
vgg,7,407,NaN,bear,bear,c30,8087_con_dnn_c30_bear_10_n02133161_4916.JPEG
vgg,7,408,NaN,dog,bear,c30,8088_con_dnn_c30_bear_10_n02133161_989.JPEG
vgg,7,409,NaN,bear,bear,c30,8089_con_dnn_c30_bear_10_n02132136_20009.JPEG
vgg,7,410,NaN,bear,bear,c30,8090_con_dnn_c30_bear_10_n02134084_8153.JPEG
vgg,7,411,NaN,boat,boat,c30,8091_con_dnn_c30_boat_10_n03662601_18611.JPEG
vgg,7,412,NaN,boat,boat,c30,8092_con_dnn_c30_boat_10_n03662601_6729.JPEG
vgg,7,413,NaN,boat,boat,c30,8093_con_dnn_c30_boat_10_n03344393_2434.JPEG
vgg,7,414,NaN,car,boat,c30,8094_con_dnn_c30_boat_10_n04273569_9452.JPEG
vgg,7,415,NaN,boat,boat,c30,8095_con_dnn_c30_boat_10_n04612504_37043.JPEG
vgg,7,416,NaN,boat,boat,c30,8096_con_dnn_c30_boat_10_n02951358_3780.JPEG
vgg,7,417,NaN,boat,boat,c30,8097_con_dnn_c30_boat_10_n04273569_51.JPEG
vgg,7,418,NaN,boat,boat,c30,8098_con_dnn_c30_boat_10_n03344393_726.JPEG
vgg,7,419,NaN,boat,boat,c30,8099_con_dnn_c30_boat_10_n04273569_13592.JPEG
vgg,7,420,NaN,boat,boat,c30,8100_con_dnn_c30_boat_10_n03662601_2577.JPEG
vgg,7,421,NaN,cat,cat,c30,8101_con_dnn_c30_cat_10_n02125311_22060.JPEG
vgg,7,422,NaN,cat,cat,c30,8102_con_dnn_c30_cat_10_n02123597_2020.JPEG
vgg,7,423,NaN,cat,cat,c30,8103_con_dnn_c30_cat_10_n02123394_932.JPEG
vgg,7,424,NaN,cat,cat,c30,8104_con_dnn_c30_cat_10_n02123045_9467.JPEG
vgg,7,425,NaN,cat,cat,c30,8105_con_dnn_c30_cat_10_n02123597_12651.JPEG
vgg,7,426,NaN,cat,cat,c30,8106_con_dnn_c30_cat_10_n02124075_12316.JPEG
vgg,7,427,NaN,cat,cat,c30,8107_con_dnn_c30_cat_10_n02123394_1109.JPEG
vgg,7,428,NaN,dog,cat,c30,8108_con_dnn_c30_cat_10_n02123394_578.JPEG
vgg,7,429,NaN,dog,cat,c30,8109_con_dnn_c30_cat_10_n02123597_5493.JPEG
vgg,7,430,NaN,cat,cat,c30,8110_con_dnn_c30_cat_10_n02123159_73.JPEG
vgg,7,431,NaN,truck,bottle,c30,8111_con_dnn_c30_bottle_10_n03983396_21188.JPEG
vgg,7,432,NaN,chair,bottle,c30,8112_con_dnn_c30_bottle_10_n04557648_2575.JPEG
vgg,7,433,NaN,bottle,bottle,c30,8113_con_dnn_c30_bottle_10_n04560804_1860.JPEG
vgg,7,434,NaN,bottle,bottle,c30,8114_con_dnn_c30_bottle_10_n04591713_1172.JPEG
vgg,7,435,NaN,bottle,bottle,c30,8115_con_dnn_c30_bottle_10_n04557648_8985.JPEG
vgg,7,436,NaN,bottle,bottle,c30,8116_con_dnn_c30_bottle_10_n04579145_934.JPEG
vgg,7,437,NaN,bottle,bottle,c30,8117_con_dnn_c30_bottle_10_n03937543_1531.JPEG
vgg,7,438,NaN,bottle,bottle,c30,8118_con_dnn_c30_bottle_10_n03937543_1391.JPEG
vgg,7,439,NaN,bottle,bottle,c30,8119_con_dnn_c30_bottle_10_n04591713_4971.JPEG
vgg,7,440,NaN,bottle,bottle,c30,8120_con_dnn_c30_bottle_10_n03983396_10380.JPEG
vgg,7,441,NaN,truck,truck,c30,8121_con_dnn_c30_truck_10_n03417042_9552.JPEG
vgg,7,442,NaN,truck,truck,c30,8122_con_dnn_c30_truck_10_n04467665_4401.JPEG
vgg,7,443,NaN,truck,truck,c30,8123_con_dnn_c30_truck_10_n04467665_57.JPEG
vgg,7,444,NaN,truck,truck,c30,8124_con_dnn_c30_truck_10_n03417042_3350.JPEG
vgg,7,445,NaN,truck,truck,c30,8125_con_dnn_c30_truck_10_n04467665_52418.JPEG
vgg,7,446,NaN,truck,truck,c30,8126_con_dnn_c30_truck_10_n03796401_755.JPEG
vgg,7,447,NaN,truck,truck,c30,8127_con_dnn_c30_truck_10_n03417042_94.JPEG
vgg,7,448,NaN,truck,truck,c30,8128_con_dnn_c30_truck_10_n03417042_27613.JPEG
vgg,7,449,NaN,truck,truck,c30,8129_con_dnn_c30_truck_10_n03796401_27106.JPEG
vgg,7,450,NaN,truck,truck,c30,8130_con_dnn_c30_truck_10_n04467665_30581.JPEG
vgg,7,451,NaN,car,car,c30,8131_con_dnn_c30_car_10_n04285008_9588.JPEG
vgg,7,452,NaN,truck,car,c30,8132_con_dnn_c30_car_10_n02814533_8881.JPEG
vgg,7,453,NaN,truck,car,c30,8133_con_dnn_c30_car_10_n02814533_12048.JPEG
vgg,7,454,NaN,car,car,c30,8134_con_dnn_c30_car_10_n04285008_3863.JPEG
vgg,7,455,NaN,car,car,c30,8135_con_dnn_c30_car_10_n04285008_2685.JPEG
vgg,7,456,NaN,car,car,c30,8136_con_dnn_c30_car_10_n04285008_13055.JPEG
vgg,7,457,NaN,car,car,c30,8137_con_dnn_c30_car_10_n04285008_7566.JPEG
vgg,7,458,NaN,car,car,c30,8138_con_dnn_c30_car_10_n02814533_69279.JPEG
vgg,7,459,NaN,car,car,c30,8139_con_dnn_c30_car_10_n04285008_4893.JPEG
vgg,7,460,NaN,car,car,c30,8140_con_dnn_c30_car_10_n02814533_39667.JPEG
vgg,7,461,NaN,bird,bird,c30,8141_con_dnn_c30_bird_10_n02006656_192.JPEG
vgg,7,462,NaN,bird,bird,c30,8142_con_dnn_c30_bird_10_n02002556_3597.JPEG
vgg,7,463,NaN,bird,bird,c30,8143_con_dnn_c30_bird_10_n01531178_27005.JPEG
vgg,7,464,NaN,bird,bird,c30,8144_con_dnn_c30_bird_10_n01855672_9711.JPEG
vgg,7,465,NaN,bird,bird,c30,8145_con_dnn_c30_bird_10_n01537544_2851.JPEG
vgg,7,466,NaN,bird,bird,c30,8146_con_dnn_c30_bird_10_n01560419_1909.JPEG
vgg,7,467,NaN,bird,bird,c30,8147_con_dnn_c30_bird_10_n01601694_21866.JPEG
vgg,7,468,NaN,bird,bird,c30,8148_con_dnn_c30_bird_10_n01833805_13001.JPEG
vgg,7,469,NaN,bird,bird,c30,8149_con_dnn_c30_bird_10_n01819313_5819.JPEG
vgg,7,470,NaN,bird,bird,c30,8150_con_dnn_c30_bird_10_n01530575_38882.JPEG
vgg,7,471,NaN,dog,dog,c30,8151_con_dnn_c30_dog_10_n02094433_9506.JPEG
vgg,7,472,NaN,dog,dog,c30,8152_con_dnn_c30_dog_10_n02108915_5523.JPEG
vgg,7,473,NaN,dog,dog,c30,8153_con_dnn_c30_dog_10_n02110185_12761.JPEG
vgg,7,474,NaN,dog,dog,c30,8154_con_dnn_c30_dog_10_n02098105_1569.JPEG
vgg,7,475,NaN,dog,dog,c30,8155_con_dnn_c30_dog_10_n02111277_1881.JPEG
vgg,7,476,NaN,dog,dog,c30,8156_con_dnn_c30_dog_10_n02089867_8964.JPEG
vgg,7,477,NaN,dog,dog,c30,8157_con_dnn_c30_dog_10_n02085782_14135.JPEG
vgg,7,478,NaN,dog,dog,c30,8158_con_dnn_c30_dog_10_n02106662_1655.JPEG
vgg,7,479,NaN,dog,dog,c30,8159_con_dnn_c30_dog_10_n02112018_13286.JPEG
vgg,7,480,NaN,dog,dog,c30,8160_con_dnn_c30_dog_10_n02113023_11847.JPEG
vgg,7,481,NaN,knife,knife,c15,8161_con_dnn_c15_knife_10_n03041632_4975.JPEG
vgg,7,482,NaN,bottle,knife,c15,8162_con_dnn_c15_knife_10_n03041632_8528.JPEG
vgg,7,483,NaN,knife,knife,c15,8163_con_dnn_c15_knife_10_n03041632_18236.JPEG
vgg,7,484,NaN,knife,knife,c15,8164_con_dnn_c15_knife_10_n03041632_99460.JPEG
vgg,7,485,NaN,knife,knife,c15,8165_con_dnn_c15_knife_10_n03041632_2386.JPEG
vgg,7,486,NaN,boat,knife,c15,8166_con_dnn_c15_knife_10_n03041632_37513.JPEG
vgg,7,487,NaN,knife,knife,c15,8167_con_dnn_c15_knife_10_n03041632_27960.JPEG
vgg,7,488,NaN,knife,knife,c15,8168_con_dnn_c15_knife_10_n03041632_15250.JPEG
vgg,7,489,NaN,chair,knife,c15,8169_con_dnn_c15_knife_10_n03041632_1006.JPEG
vgg,7,490,NaN,bottle,knife,c15,8170_con_dnn_c15_knife_10_n03041632_3171.JPEG
vgg,7,491,NaN,keyboard,keyboard,c15,8171_con_dnn_c15_keyboard_10_n03085013_22351.JPEG
vgg,7,492,NaN,keyboard,keyboard,c15,8172_con_dnn_c15_keyboard_10_n04505470_9866.JPEG
vgg,7,493,NaN,keyboard,keyboard,c15,8173_con_dnn_c15_keyboard_10_n03085013_24410.JPEG
vgg,7,494,NaN,truck,keyboard,c15,8174_con_dnn_c15_keyboard_10_n03085013_6834.JPEG
vgg,7,495,NaN,keyboard,keyboard,c15,8175_con_dnn_c15_keyboard_10_n04505470_4566.JPEG
vgg,7,496,NaN,bottle,keyboard,c15,8176_con_dnn_c15_keyboard_10_n04505470_4611.JPEG
vgg,7,497,NaN,keyboard,keyboard,c15,8177_con_dnn_c15_keyboard_10_n04505470_912.JPEG
vgg,7,498,NaN,keyboard,keyboard,c15,8178_con_dnn_c15_keyboard_10_n03085013_28741.JPEG
vgg,7,499,NaN,keyboard,keyboard,c15,8179_con_dnn_c15_keyboard_10_n04505470_4411.JPEG
vgg,7,500,NaN,keyboard,keyboard,c15,8180_con_dnn_c15_keyboard_10_n03085013_13083.JPEG
vgg,7,501,NaN,elephant,elephant,c15,8181_con_dnn_c15_elephant_10_n02504013_6780.JPEG
vgg,7,502,NaN,elephant,elephant,c15,8182_con_dnn_c15_elephant_10_n02504013_10588.JPEG
vgg,7,503,NaN,elephant,elephant,c15,8183_con_dnn_c15_elephant_10_n02504458_5181.JPEG
vgg,7,504,NaN,bear,elephant,c15,8184_con_dnn_c15_elephant_10_n02504013_10192.JPEG
vgg,7,505,NaN,elephant,elephant,c15,8185_con_dnn_c15_elephant_10_n02504013_15825.JPEG
vgg,7,506,NaN,elephant,elephant,c15,8186_con_dnn_c15_elephant_10_n02504458_3147.JPEG
vgg,7,507,NaN,elephant,elephant,c15,8187_con_dnn_c15_elephant_10_n02504013_6275.JPEG
vgg,7,508,NaN,elephant,elephant,c15,8188_con_dnn_c15_elephant_10_n02504458_4374.JPEG
vgg,7,509,NaN,bear,elephant,c15,8189_con_dnn_c15_elephant_10_n02504013_411.JPEG
vgg,7,510,NaN,dog,elephant,c15,8190_con_dnn_c15_elephant_10_n02504458_4121.JPEG
vgg,7,511,NaN,truck,bicycle,c15,8191_con_dnn_c15_bicycle_10_n03792782_5421.JPEG
vgg,7,512,NaN,bicycle,bicycle,c15,8192_con_dnn_c15_bicycle_10_n02835271_11573.JPEG
vgg,7,513,NaN,bicycle,bicycle,c15,8193_con_dnn_c15_bicycle_10_n03792782_2435.JPEG
vgg,7,514,NaN,bicycle,bicycle,c15,8194_con_dnn_c15_bicycle_10_n02835271_14670.JPEG
vgg,7,515,NaN,bicycle,bicycle,c15,8195_con_dnn_c15_bicycle_10_n03792782_9786.JPEG
vgg,7,516,NaN,boat,bicycle,c15,8196_con_dnn_c15_bicycle_10_n02835271_1381.JPEG
vgg,7,517,NaN,bicycle,bicycle,c15,8197_con_dnn_c15_bicycle_10_n03792782_1851.JPEG
vgg,7,518,NaN,bicycle,bicycle,c15,8198_con_dnn_c15_bicycle_10_n02835271_9116.JPEG
vgg,7,519,NaN,bicycle,bicycle,c15,8199_con_dnn_c15_bicycle_10_n02835271_1199.JPEG
vgg,7,520,NaN,bicycle,bicycle,c15,8200_con_dnn_c15_bicycle_10_n02835271_15960.JPEG
vgg,7,521,NaN,airplane,airplane,c15,8201_con_dnn_c15_airplane_10_n02690373_6618.JPEG
vgg,7,522,NaN,airplane,airplane,c15,8202_con_dnn_c15_airplane_10_n02690373_10207.JPEG
vgg,7,523,NaN,airplane,airplane,c15,8203_con_dnn_c15_airplane_10_n02690373_5374.JPEG
vgg,7,524,NaN,boat,airplane,c15,8204_con_dnn_c15_airplane_10_n02690373_7465.JPEG
vgg,7,525,NaN,airplane,airplane,c15,8205_con_dnn_c15_airplane_10_n02690373_787.JPEG
vgg,7,526,NaN,airplane,airplane,c15,8206_con_dnn_c15_airplane_10_n02690373_4375.JPEG
vgg,7,527,NaN,boat,airplane,c15,8207_con_dnn_c15_airplane_10_n02690373_6755.JPEG
vgg,7,528,NaN,airplane,airplane,c15,8208_con_dnn_c15_airplane_10_n02690373_8592.JPEG
vgg,7,529,NaN,boat,airplane,c15,8209_con_dnn_c15_airplane_10_n02690373_9001.JPEG
vgg,7,530,NaN,airplane,airplane,c15,8210_con_dnn_c15_airplane_10_n02690373_9445.JPEG
vgg,7,531,NaN,clock,clock,c15,8211_con_dnn_c15_clock_10_n04548280_2506.JPEG
vgg,7,532,NaN,keyboard,clock,c15,8212_con_dnn_c15_clock_10_n03196217_1244.JPEG
vgg,7,533,NaN,clock,clock,c15,8213_con_dnn_c15_clock_10_n04548280_4113.JPEG
vgg,7,534,NaN,clock,clock,c15,8214_con_dnn_c15_clock_10_n04548280_9125.JPEG
vgg,7,535,NaN,clock,clock,c15,8215_con_dnn_c15_clock_10_n04548280_3677.JPEG
vgg,7,536,NaN,clock,clock,c15,8216_con_dnn_c15_clock_10_n02708093_6890.JPEG
vgg,7,537,NaN,boat,clock,c15,8217_con_dnn_c15_clock_10_n04548280_6388.JPEG
vgg,7,538,NaN,clock,clock,c15,8218_con_dnn_c15_clock_10_n04548280_1425.JPEG
vgg,7,539,NaN,clock,clock,c15,8219_con_dnn_c15_clock_10_n03196217_998.JPEG
vgg,7,540,NaN,clock,clock,c15,8220_con_dnn_c15_clock_10_n04548280_7565.JPEG
vgg,7,541,NaN,truck,oven,c15,8221_con_dnn_c15_oven_10_n04111531_25647.JPEG
vgg,7,542,NaN,chair,oven,c15,8222_con_dnn_c15_oven_10_n04111531_11279.JPEG
vgg,7,543,NaN,oven,oven,c15,8223_con_dnn_c15_oven_10_n04111531_9910.JPEG
vgg,7,544,NaN,oven,oven,c15,8224_con_dnn_c15_oven_10_n04111531_9370.JPEG
vgg,7,545,NaN,truck,oven,c15,8225_con_dnn_c15_oven_10_n04111531_6899.JPEG
vgg,7,546,NaN,oven,oven,c15,8226_con_dnn_c15_oven_10_n04111531_1992.JPEG
vgg,7,547,NaN,truck,oven,c15,8227_con_dnn_c15_oven_10_n04111531_5737.JPEG
vgg,7,548,NaN,truck,oven,c15,8228_con_dnn_c15_oven_10_n04111531_2826.JPEG
vgg,7,549,NaN,bicycle,oven,c15,8229_con_dnn_c15_oven_10_n04111531_17923.JPEG
vgg,7,550,NaN,oven,oven,c15,8230_con_dnn_c15_oven_10_n04111531_12147.JPEG
vgg,7,551,NaN,chair,chair,c15,8231_con_dnn_c15_chair_10_n04429376_1161.JPEG
vgg,7,552,NaN,truck,chair,c15,8232_con_dnn_c15_chair_10_n02791124_14.JPEG
vgg,7,553,NaN,chair,chair,c15,8233_con_dnn_c15_chair_10_n04099969_9152.JPEG
vgg,7,554,NaN,chair,chair,c15,8234_con_dnn_c15_chair_10_n03376595_3038.JPEG
vgg,7,555,NaN,dog,chair,c15,8235_con_dnn_c15_chair_10_n04429376_13191.JPEG
vgg,7,556,NaN,chair,chair,c15,8236_con_dnn_c15_chair_10_n03376595_6850.JPEG
vgg,7,557,NaN,chair,chair,c15,8237_con_dnn_c15_chair_10_n04099969_905.JPEG
vgg,7,558,NaN,chair,chair,c15,8238_con_dnn_c15_chair_10_n03376595_2666.JPEG
vgg,7,559,NaN,chair,chair,c15,8239_con_dnn_c15_chair_10_n04099969_16296.JPEG
vgg,7,560,NaN,chair,chair,c15,8240_con_dnn_c15_chair_10_n04429376_27135.JPEG
vgg,7,561,NaN,bear,bear,c15,8241_con_dnn_c15_bear_10_n02133161_12592.JPEG
vgg,7,562,NaN,bear,bear,c15,8242_con_dnn_c15_bear_10_n02134084_22074.JPEG
vgg,7,563,NaN,bear,bear,c15,8243_con_dnn_c15_bear_10_n02132136_23202.JPEG
vgg,7,564,NaN,dog,bear,c15,8244_con_dnn_c15_bear_10_n02134418_278.JPEG
vgg,7,565,NaN,bear,bear,c15,8245_con_dnn_c15_bear_10_n02133161_1646.JPEG
vgg,7,566,NaN,dog,bear,c15,8246_con_dnn_c15_bear_10_n02132136_5870.JPEG
vgg,7,567,NaN,bear,bear,c15,8247_con_dnn_c15_bear_10_n02132136_5200.JPEG
vgg,7,568,NaN,bear,bear,c15,8248_con_dnn_c15_bear_10_n02134084_5153.JPEG
vgg,7,569,NaN,bear,bear,c15,8249_con_dnn_c15_bear_10_n02133161_897.JPEG
vgg,7,570,NaN,bear,bear,c15,8250_con_dnn_c15_bear_10_n02133161_757.JPEG
vgg,7,571,NaN,boat,boat,c15,8251_con_dnn_c15_boat_10_n03344393_2895.JPEG
vgg,7,572,NaN,boat,boat,c15,8252_con_dnn_c15_boat_10_n03344393_4542.JPEG
vgg,7,573,NaN,boat,boat,c15,8253_con_dnn_c15_boat_10_n03662601_3877.JPEG
vgg,7,574,NaN,boat,boat,c15,8254_con_dnn_c15_boat_10_n02951358_19901.JPEG
vgg,7,575,NaN,boat,boat,c15,8255_con_dnn_c15_boat_10_n03662601_11358.JPEG
vgg,7,576,NaN,boat,boat,c15,8256_con_dnn_c15_boat_10_n02951358_12326.JPEG
vgg,7,577,NaN,boat,boat,c15,8257_con_dnn_c15_boat_10_n03662601_2869.JPEG
vgg,7,578,NaN,boat,boat,c15,8258_con_dnn_c15_boat_10_n02951358_11022.JPEG
vgg,7,579,NaN,boat,boat,c15,8259_con_dnn_c15_boat_10_n03662601_33238.JPEG
vgg,7,580,NaN,boat,boat,c15,8260_con_dnn_c15_boat_10_n04273569_6437.JPEG
vgg,7,581,NaN,cat,cat,c15,8261_con_dnn_c15_cat_10_n02124075_5043.JPEG
vgg,7,582,NaN,cat,cat,c15,8262_con_dnn_c15_cat_10_n02123597_9652.JPEG
vgg,7,583,NaN,cat,cat,c15,8263_con_dnn_c15_cat_10_n02125311_38971.JPEG
vgg,7,584,NaN,dog,cat,c15,8264_con_dnn_c15_cat_10_n02123159_1521.JPEG
vgg,7,585,NaN,cat,cat,c15,8265_con_dnn_c15_cat_10_n02124075_13894.JPEG
vgg,7,586,NaN,cat,cat,c15,8266_con_dnn_c15_cat_10_n02123159_1359.JPEG
vgg,7,587,NaN,cat,cat,c15,8267_con_dnn_c15_cat_10_n02123045_12736.JPEG
vgg,7,588,NaN,cat,cat,c15,8268_con_dnn_c15_cat_10_n02123159_3379.JPEG
vgg,7,589,NaN,cat,cat,c15,8269_con_dnn_c15_cat_10_n02123597_4948.JPEG
vgg,7,590,NaN,bear,cat,c15,8270_con_dnn_c15_cat_10_n02124075_5632.JPEG
vgg,7,591,NaN,bottle,bottle,c15,8271_con_dnn_c15_bottle_10_n04560804_20128.JPEG
vgg,7,592,NaN,bottle,bottle,c15,8272_con_dnn_c15_bottle_10_n04560804_15525.JPEG
vgg,7,593,NaN,bottle,bottle,c15,8273_con_dnn_c15_bottle_10_n03937543_1970.JPEG
vgg,7,594,NaN,bottle,bottle,c15,8274_con_dnn_c15_bottle_10_n04591713_957.JPEG
vgg,7,595,NaN,bottle,bottle,c15,8275_con_dnn_c15_bottle_10_n02823428_1219.JPEG
vgg,7,596,NaN,bottle,bottle,c15,8276_con_dnn_c15_bottle_10_n03983396_19611.JPEG
vgg,7,597,NaN,bottle,bottle,c15,8277_con_dnn_c15_bottle_10_n03937543_1490.JPEG
vgg,7,598,NaN,bottle,bottle,c15,8278_con_dnn_c15_bottle_10_n03937543_1787.JPEG
vgg,7,599,NaN,bottle,bottle,c15,8279_con_dnn_c15_bottle_10_n04557648_3405.JPEG
vgg,7,600,NaN,bottle,bottle,c15,8280_con_dnn_c15_bottle_10_n04560804_477.JPEG
vgg,7,601,NaN,airplane,truck,c15,8281_con_dnn_c15_truck_10_n03417042_441.JPEG
vgg,7,602,NaN,boat,truck,c15,8282_con_dnn_c15_truck_10_n03796401_4733.JPEG
vgg,7,603,NaN,truck,truck,c15,8283_con_dnn_c15_truck_10_n03417042_12013.JPEG
vgg,7,604,NaN,truck,truck,c15,8284_con_dnn_c15_truck_10_n04467665_360.JPEG
vgg,7,605,NaN,truck,truck,c15,8285_con_dnn_c15_truck_10_n03417042_27931.JPEG
vgg,7,606,NaN,truck,truck,c15,8286_con_dnn_c15_truck_10_n04467665_67717.JPEG
vgg,7,607,NaN,truck,truck,c15,8287_con_dnn_c15_truck_10_n03417042_8227.JPEG
vgg,7,608,NaN,truck,truck,c15,8288_con_dnn_c15_truck_10_n03417042_3104.JPEG
vgg,7,609,NaN,truck,truck,c15,8289_con_dnn_c15_truck_10_n03796401_6802.JPEG
vgg,7,610,NaN,airplane,truck,c15,8290_con_dnn_c15_truck_10_n03417042_4658.JPEG
vgg,7,611,NaN,car,car,c15,8291_con_dnn_c15_car_10_n02814533_39994.JPEG
vgg,7,612,NaN,car,car,c15,8292_con_dnn_c15_car_10_n04285008_9388.JPEG
vgg,7,613,NaN,car,car,c15,8293_con_dnn_c15_car_10_n02814533_1884.JPEG
vgg,7,614,NaN,car,car,c15,8294_con_dnn_c15_car_10_n02814533_42884.JPEG
vgg,7,615,NaN,truck,car,c15,8295_con_dnn_c15_car_10_n03100240_1836.JPEG
vgg,7,616,NaN,truck,car,c15,8296_con_dnn_c15_car_10_n04285008_7243.JPEG
vgg,7,617,NaN,car,car,c15,8297_con_dnn_c15_car_10_n03100240_3398.JPEG
vgg,7,618,NaN,car,car,c15,8298_con_dnn_c15_car_10_n03100240_14873.JPEG
vgg,7,619,NaN,car,car,c15,8299_con_dnn_c15_car_10_n02814533_71181.JPEG
vgg,7,620,NaN,boat,car,c15,8300_con_dnn_c15_car_10_n02814533_4811.JPEG
vgg,7,621,NaN,bird,bird,c15,8301_con_dnn_c15_bird_10_n02025239_1478.JPEG
vgg,7,622,NaN,bird,bird,c15,8302_con_dnn_c15_bird_10_n02002556_7139.JPEG
vgg,7,623,NaN,bird,bird,c15,8303_con_dnn_c15_bird_10_n01843383_12222.JPEG
vgg,7,624,NaN,bird,bird,c15,8304_con_dnn_c15_bird_10_n01797886_28545.JPEG
vgg,7,625,NaN,dog,bird,c15,8305_con_dnn_c15_bird_10_n02018207_439.JPEG
vgg,7,626,NaN,bird,bird,c15,8306_con_dnn_c15_bird_10_n01797886_21440.JPEG
vgg,7,627,NaN,bird,bird,c15,8307_con_dnn_c15_bird_10_n01795545_6008.JPEG
vgg,7,628,NaN,bird,bird,c15,8308_con_dnn_c15_bird_10_n02006656_4914.JPEG
vgg,7,629,NaN,bird,bird,c15,8309_con_dnn_c15_bird_10_n01534433_7732.JPEG
vgg,7,630,NaN,bird,bird,c15,8310_con_dnn_c15_bird_10_n01796340_21975.JPEG
vgg,7,631,NaN,cat,dog,c15,8311_con_dnn_c15_dog_10_n02106550_3493.JPEG
vgg,7,632,NaN,dog,dog,c15,8312_con_dnn_c15_dog_10_n02091467_13330.JPEG
vgg,7,633,NaN,dog,dog,c15,8313_con_dnn_c15_dog_10_n02093428_3289.JPEG
vgg,7,634,NaN,dog,dog,c15,8314_con_dnn_c15_dog_10_n02097298_3919.JPEG
vgg,7,635,NaN,dog,dog,c15,8315_con_dnn_c15_dog_10_n02109525_13611.JPEG
vgg,7,636,NaN,bird,dog,c15,8316_con_dnn_c15_dog_10_n02110806_9898.JPEG
vgg,7,637,NaN,dog,dog,c15,8317_con_dnn_c15_dog_10_n02106030_11099.JPEG
vgg,7,638,NaN,dog,dog,c15,8318_con_dnn_c15_dog_10_n02113023_3076.JPEG
vgg,7,639,NaN,dog,dog,c15,8319_con_dnn_c15_dog_10_n02101006_4598.JPEG
vgg,7,640,NaN,dog,dog,c15,8320_con_dnn_c15_dog_10_n02105505_2347.JPEG
vgg,7,641,NaN,boat,knife,c10,8321_con_dnn_c10_knife_10_n03041632_3617.JPEG
vgg,7,642,NaN,chair,knife,c10,8322_con_dnn_c10_knife_10_n03041632_51581.JPEG
vgg,7,643,NaN,knife,knife,c10,8323_con_dnn_c10_knife_10_n03041632_46185.JPEG
vgg,7,644,NaN,knife,knife,c10,8324_con_dnn_c10_knife_10_n03041632_49363.JPEG
vgg,7,645,NaN,chair,knife,c10,8325_con_dnn_c10_knife_10_n03041632_4318.JPEG
vgg,7,646,NaN,knife,knife,c10,8326_con_dnn_c10_knife_10_n03041632_120.JPEG
vgg,7,647,NaN,knife,knife,c10,8327_con_dnn_c10_knife_10_n03041632_7173.JPEG
vgg,7,648,NaN,truck,knife,c10,8328_con_dnn_c10_knife_10_n03041632_18863.JPEG
vgg,7,649,NaN,knife,knife,c10,8329_con_dnn_c10_knife_10_n03041632_1407.JPEG
vgg,7,650,NaN,keyboard,knife,c10,8330_con_dnn_c10_knife_10_n03041632_31271.JPEG
vgg,7,651,NaN,keyboard,keyboard,c10,8331_con_dnn_c10_keyboard_10_n03085013_6561.JPEG
vgg,7,652,NaN,keyboard,keyboard,c10,8332_con_dnn_c10_keyboard_10_n04505470_986.JPEG
vgg,7,653,NaN,keyboard,keyboard,c10,8333_con_dnn_c10_keyboard_10_n04505470_4672.JPEG
vgg,7,654,NaN,keyboard,keyboard,c10,8334_con_dnn_c10_keyboard_10_n03085013_6424.JPEG
vgg,7,655,NaN,bottle,keyboard,c10,8335_con_dnn_c10_keyboard_10_n03085013_33447.JPEG
vgg,7,656,NaN,keyboard,keyboard,c10,8336_con_dnn_c10_keyboard_10_n04505470_8937.JPEG
vgg,7,657,NaN,keyboard,keyboard,c10,8337_con_dnn_c10_keyboard_10_n04505470_7928.JPEG
vgg,7,658,NaN,keyboard,keyboard,c10,8338_con_dnn_c10_keyboard_10_n03085013_23847.JPEG
vgg,7,659,NaN,keyboard,keyboard,c10,8339_con_dnn_c10_keyboard_10_n03085013_18672.JPEG
vgg,7,660,NaN,keyboard,keyboard,c10,8340_con_dnn_c10_keyboard_10_n03085013_22973.JPEG
vgg,7,661,NaN,bear,elephant,c10,8341_con_dnn_c10_elephant_10_n02504458_5882.JPEG
vgg,7,662,NaN,boat,elephant,c10,8342_con_dnn_c10_elephant_10_n02504013_1374.JPEG
vgg,7,663,NaN,bear,elephant,c10,8343_con_dnn_c10_elephant_10_n02504013_6431.JPEG
vgg,7,664,NaN,boat,elephant,c10,8344_con_dnn_c10_elephant_10_n02504013_1602.JPEG
vgg,7,665,NaN,bear,elephant,c10,8345_con_dnn_c10_elephant_10_n02504458_11382.JPEG
vgg,7,666,NaN,elephant,elephant,c10,8346_con_dnn_c10_elephant_10_n02504013_4594.JPEG
vgg,7,667,NaN,elephant,elephant,c10,8347_con_dnn_c10_elephant_10_n02504458_3716.JPEG
vgg,7,668,NaN,dog,elephant,c10,8348_con_dnn_c10_elephant_10_n02504458_4351.JPEG
vgg,7,669,NaN,boat,elephant,c10,8349_con_dnn_c10_elephant_10_n02504458_1803.JPEG
vgg,7,670,NaN,elephant,elephant,c10,8350_con_dnn_c10_elephant_10_n02504013_6423.JPEG
vgg,7,671,NaN,bicycle,bicycle,c10,8351_con_dnn_c10_bicycle_10_n02835271_13649.JPEG
vgg,7,672,NaN,truck,bicycle,c10,8352_con_dnn_c10_bicycle_10_n02835271_19306.JPEG
vgg,7,673,NaN,bicycle,bicycle,c10,8353_con_dnn_c10_bicycle_10_n03792782_8184.JPEG
vgg,7,674,NaN,bicycle,bicycle,c10,8354_con_dnn_c10_bicycle_10_n02835271_20203.JPEG
vgg,7,675,NaN,bottle,bicycle,c10,8355_con_dnn_c10_bicycle_10_n02835271_1627.JPEG
vgg,7,676,NaN,clock,bicycle,c10,8356_con_dnn_c10_bicycle_10_n02835271_9049.JPEG
vgg,7,677,NaN,boat,bicycle,c10,8357_con_dnn_c10_bicycle_10_n02835271_20099.JPEG
vgg,7,678,NaN,bottle,bicycle,c10,8358_con_dnn_c10_bicycle_10_n02835271_1525.JPEG
vgg,7,679,NaN,bicycle,bicycle,c10,8359_con_dnn_c10_bicycle_10_n03792782_34681.JPEG
vgg,7,680,NaN,boat,bicycle,c10,8360_con_dnn_c10_bicycle_10_n03792782_7139.JPEG
vgg,7,681,NaN,airplane,airplane,c10,8361_con_dnn_c10_airplane_10_n02690373_4728.JPEG
vgg,7,682,NaN,airplane,airplane,c10,8362_con_dnn_c10_airplane_10_n02690373_5405.JPEG
vgg,7,683,NaN,airplane,airplane,c10,8363_con_dnn_c10_airplane_10_n02690373_1450.JPEG
vgg,7,684,NaN,airplane,airplane,c10,8364_con_dnn_c10_airplane_10_n02690373_13610.JPEG
vgg,7,685,NaN,airplane,airplane,c10,8365_con_dnn_c10_airplane_10_n02690373_9963.JPEG
vgg,7,686,NaN,airplane,airplane,c10,8366_con_dnn_c10_airplane_10_n02690373_7046.JPEG
vgg,7,687,NaN,airplane,airplane,c10,8367_con_dnn_c10_airplane_10_n02690373_2823.JPEG
vgg,7,688,NaN,airplane,airplane,c10,8368_con_dnn_c10_airplane_10_n02690373_4410.JPEG
vgg,7,689,NaN,airplane,airplane,c10,8369_con_dnn_c10_airplane_10_n02690373_19074.JPEG
vgg,7,690,NaN,airplane,airplane,c10,8370_con_dnn_c10_airplane_10_n02690373_2561.JPEG
vgg,7,691,NaN,bottle,clock,c10,8371_con_dnn_c10_clock_10_n02708093_8038.JPEG
vgg,7,692,NaN,clock,clock,c10,8372_con_dnn_c10_clock_10_n03196217_714.JPEG
vgg,7,693,NaN,clock,clock,c10,8373_con_dnn_c10_clock_10_n03196217_8261.JPEG
vgg,7,694,NaN,clock,clock,c10,8374_con_dnn_c10_clock_10_n04548280_596.JPEG
vgg,7,695,NaN,clock,clock,c10,8375_con_dnn_c10_clock_10_n02708093_3171.JPEG
vgg,7,696,NaN,clock,clock,c10,8376_con_dnn_c10_clock_10_n02708093_564.JPEG
vgg,7,697,NaN,bottle,clock,c10,8377_con_dnn_c10_clock_10_n03196217_4009.JPEG
vgg,7,698,NaN,clock,clock,c10,8378_con_dnn_c10_clock_10_n04548280_5991.JPEG
vgg,7,699,NaN,boat,clock,c10,8379_con_dnn_c10_clock_10_n04548280_1630.JPEG
vgg,7,700,NaN,clock,clock,c10,8380_con_dnn_c10_clock_10_n02708093_5944.JPEG
vgg,7,701,NaN,chair,oven,c10,8381_con_dnn_c10_oven_10_n04111531_11110.JPEG
vgg,7,702,NaN,bottle,oven,c10,8382_con_dnn_c10_oven_10_n04111531_18979.JPEG
vgg,7,703,NaN,boat,oven,c10,8383_con_dnn_c10_oven_10_n04111531_11079.JPEG
vgg,7,704,NaN,boat,oven,c10,8384_con_dnn_c10_oven_10_n04111531_12725.JPEG
vgg,7,705,NaN,bear,oven,c10,8385_con_dnn_c10_oven_10_n04111531_3082.JPEG
vgg,7,706,NaN,truck,oven,c10,8386_con_dnn_c10_oven_10_n04111531_845.JPEG
vgg,7,707,NaN,bird,oven,c10,8387_con_dnn_c10_oven_10_n04111531_1798.JPEG
vgg,7,708,NaN,oven,oven,c10,8388_con_dnn_c10_oven_10_n04111531_1009.JPEG
vgg,7,709,NaN,clock,oven,c10,8389_con_dnn_c10_oven_10_n04111531_6181.JPEG
vgg,7,710,NaN,boat,oven,c10,8390_con_dnn_c10_oven_10_n04111531_663.JPEG
vgg,7,711,NaN,chair,chair,c10,8391_con_dnn_c10_chair_10_n04099969_4298.JPEG
vgg,7,712,NaN,chair,chair,c10,8392_con_dnn_c10_chair_10_n03376595_754.JPEG
vgg,7,713,NaN,chair,chair,c10,8393_con_dnn_c10_chair_10_n04099969_39773.JPEG
vgg,7,714,NaN,chair,chair,c10,8394_con_dnn_c10_chair_10_n04099969_26462.JPEG
vgg,7,715,NaN,chair,chair,c10,8395_con_dnn_c10_chair_10_n02791124_733.JPEG
vgg,7,716,NaN,chair,chair,c10,8396_con_dnn_c10_chair_10_n04429376_23944.JPEG
vgg,7,717,NaN,chair,chair,c10,8397_con_dnn_c10_chair_10_n04099969_8892.JPEG
vgg,7,718,NaN,chair,chair,c10,8398_con_dnn_c10_chair_10_n04099969_8647.JPEG
vgg,7,719,NaN,chair,chair,c10,8399_con_dnn_c10_chair_10_n03376595_2768.JPEG
vgg,7,720,NaN,chair,chair,c10,8400_con_dnn_c10_chair_10_n04429376_3459.JPEG
vgg,7,721,NaN,dog,bear,c10,8401_con_dnn_c10_bear_10_n02134418_12733.JPEG
vgg,7,722,NaN,bear,bear,c10,8402_con_dnn_c10_bear_10_n02133161_3088.JPEG
vgg,7,723,NaN,bear,bear,c10,8403_con_dnn_c10_bear_10_n02134084_967.JPEG
vgg,7,724,NaN,bear,bear,c10,8404_con_dnn_c10_bear_10_n02134418_258.JPEG
vgg,7,725,NaN,bear,bear,c10,8405_con_dnn_c10_bear_10_n02134084_14926.JPEG
vgg,7,726,NaN,bear,bear,c10,8406_con_dnn_c10_bear_10_n02132136_6646.JPEG
vgg,7,727,NaN,bear,bear,c10,8407_con_dnn_c10_bear_10_n02134084_6969.JPEG
vgg,7,728,NaN,bear,bear,c10,8408_con_dnn_c10_bear_10_n02132136_3616.JPEG
vgg,7,729,NaN,boat,bear,c10,8409_con_dnn_c10_bear_10_n02134418_3388.JPEG
vgg,7,730,NaN,bear,bear,c10,8410_con_dnn_c10_bear_10_n02132136_5118.JPEG
vgg,7,731,NaN,boat,boat,c10,8411_con_dnn_c10_boat_10_n03344393_4916.JPEG
vgg,7,732,NaN,boat,boat,c10,8412_con_dnn_c10_boat_10_n03344393_1145.JPEG
vgg,7,733,NaN,boat,boat,c10,8413_con_dnn_c10_boat_10_n02951358_3046.JPEG
vgg,7,734,NaN,boat,boat,c10,8414_con_dnn_c10_boat_10_n04612504_2280.JPEG
vgg,7,735,NaN,boat,boat,c10,8415_con_dnn_c10_boat_10_n04273569_6071.JPEG
vgg,7,736,NaN,boat,boat,c10,8416_con_dnn_c10_boat_10_n04273569_8740.JPEG
vgg,7,737,NaN,boat,boat,c10,8417_con_dnn_c10_boat_10_n03344393_1467.JPEG
vgg,7,738,NaN,boat,boat,c10,8418_con_dnn_c10_boat_10_n03662601_35967.JPEG
vgg,7,739,NaN,boat,boat,c10,8419_con_dnn_c10_boat_10_n02951358_8194.JPEG
vgg,7,740,NaN,boat,boat,c10,8420_con_dnn_c10_boat_10_n03662601_7027.JPEG
vgg,7,741,NaN,cat,cat,c10,8421_con_dnn_c10_cat_10_n02123597_647.JPEG
vgg,7,742,NaN,cat,cat,c10,8422_con_dnn_c10_cat_10_n02123045_4842.JPEG
vgg,7,743,NaN,dog,cat,c10,8423_con_dnn_c10_cat_10_n02123159_4802.JPEG
vgg,7,744,NaN,cat,cat,c10,8424_con_dnn_c10_cat_10_n02124075_11763.JPEG
vgg,7,745,NaN,dog,cat,c10,8425_con_dnn_c10_cat_10_n02123159_5695.JPEG
vgg,7,746,NaN,cat,cat,c10,8426_con_dnn_c10_cat_10_n02123045_12088.JPEG
vgg,7,747,NaN,dog,cat,c10,8427_con_dnn_c10_cat_10_n02124075_11526.JPEG
vgg,7,748,NaN,dog,cat,c10,8428_con_dnn_c10_cat_10_n02123394_2784.JPEG
vgg,7,749,NaN,cat,cat,c10,8429_con_dnn_c10_cat_10_n02123394_673.JPEG
vgg,7,750,NaN,dog,cat,c10,8430_con_dnn_c10_cat_10_n02124075_5867.JPEG
vgg,7,751,NaN,bottle,bottle,c10,8431_con_dnn_c10_bottle_10_n02823428_3824.JPEG
vgg,7,752,NaN,bottle,bottle,c10,8432_con_dnn_c10_bottle_10_n03983396_4321.JPEG
vgg,7,753,NaN,boat,bottle,c10,8433_con_dnn_c10_bottle_10_n02823428_8375.JPEG
vgg,7,754,NaN,bottle,bottle,c10,8434_con_dnn_c10_bottle_10_n03937543_4134.JPEG
vgg,7,755,NaN,bird,bottle,c10,8435_con_dnn_c10_bottle_10_n04591713_5519.JPEG
vgg,7,756,NaN,boat,bottle,c10,8436_con_dnn_c10_bottle_10_n04560804_15983.JPEG
vgg,7,757,NaN,bottle,bottle,c10,8437_con_dnn_c10_bottle_10_n04591713_4904.JPEG
vgg,7,758,NaN,boat,bottle,c10,8438_con_dnn_c10_bottle_10_n03983396_8552.JPEG
vgg,7,759,NaN,clock,bottle,c10,8439_con_dnn_c10_bottle_10_n04557648_4010.JPEG
vgg,7,760,NaN,bottle,bottle,c10,8440_con_dnn_c10_bottle_10_n03937543_3054.JPEG
vgg,7,761,NaN,truck,truck,c10,8441_con_dnn_c10_truck_10_n03417042_3466.JPEG
vgg,7,762,NaN,truck,truck,c10,8442_con_dnn_c10_truck_10_n03417042_27113.JPEG
vgg,7,763,NaN,truck,truck,c10,8443_con_dnn_c10_truck_10_n04467665_30835.JPEG
vgg,7,764,NaN,truck,truck,c10,8444_con_dnn_c10_truck_10_n04467665_79452.JPEG
vgg,7,765,NaN,boat,truck,c10,8445_con_dnn_c10_truck_10_n04467665_48928.JPEG
vgg,7,766,NaN,truck,truck,c10,8446_con_dnn_c10_truck_10_n04467665_42482.JPEG
vgg,7,767,NaN,truck,truck,c10,8447_con_dnn_c10_truck_10_n03417042_5886.JPEG
vgg,7,768,NaN,truck,truck,c10,8448_con_dnn_c10_truck_10_n03417042_11515.JPEG
vgg,7,769,NaN,truck,truck,c10,8449_con_dnn_c10_truck_10_n03796401_17504.JPEG
vgg,7,770,NaN,truck,truck,c10,8450_con_dnn_c10_truck_10_n04467665_35146.JPEG
vgg,7,771,NaN,truck,car,c10,8451_con_dnn_c10_car_10_n02814533_27408.JPEG
vgg,7,772,NaN,truck,car,c10,8452_con_dnn_c10_car_10_n03100240_3855.JPEG
vgg,7,773,NaN,truck,car,c10,8453_con_dnn_c10_car_10_n03100240_1453.JPEG
vgg,7,774,NaN,truck,car,c10,8454_con_dnn_c10_car_10_n04285008_9404.JPEG
vgg,7,775,NaN,truck,car,c10,8455_con_dnn_c10_car_10_n04285008_788.JPEG
vgg,7,776,NaN,truck,car,c10,8456_con_dnn_c10_car_10_n04285008_15027.JPEG
vgg,7,777,NaN,boat,car,c10,8457_con_dnn_c10_car_10_n03100240_18019.JPEG
vgg,7,778,NaN,car,car,c10,8458_con_dnn_c10_car_10_n04285008_3961.JPEG
vgg,7,779,NaN,truck,car,c10,8459_con_dnn_c10_car_10_n03100240_1794.JPEG
vgg,7,780,NaN,boat,car,c10,8460_con_dnn_c10_car_10_n04285008_3015.JPEG
vgg,7,781,NaN,bird,bird,c10,8461_con_dnn_c10_bird_10_n02037110_16643.JPEG
vgg,7,782,NaN,boat,bird,c10,8462_con_dnn_c10_bird_10_n01582220_2373.JPEG
vgg,7,783,NaN,bird,bird,c10,8463_con_dnn_c10_bird_10_n01797886_2548.JPEG
vgg,7,784,NaN,bird,bird,c10,8464_con_dnn_c10_bird_10_n01818515_6981.JPEG
vgg,7,785,NaN,bird,bird,c10,8465_con_dnn_c10_bird_10_n02017213_13638.JPEG
vgg,7,786,NaN,bear,bird,c10,8466_con_dnn_c10_bird_10_n02002556_3463.JPEG
vgg,7,787,NaN,bird,bird,c10,8467_con_dnn_c10_bird_10_n02033041_2770.JPEG
vgg,7,788,NaN,bird,bird,c10,8468_con_dnn_c10_bird_10_n02011460_5534.JPEG
vgg,7,789,NaN,bird,bird,c10,8469_con_dnn_c10_bird_10_n01817953_5869.JPEG
vgg,7,790,NaN,bird,bird,c10,8470_con_dnn_c10_bird_10_n02025239_2821.JPEG
vgg,7,791,NaN,dog,dog,c10,8471_con_dnn_c10_dog_10_n02106550_11454.JPEG
vgg,7,792,NaN,dog,dog,c10,8472_con_dnn_c10_dog_10_n02095570_9201.JPEG
vgg,7,793,NaN,dog,dog,c10,8473_con_dnn_c10_dog_10_n02110063_12344.JPEG
vgg,7,794,NaN,dog,dog,c10,8474_con_dnn_c10_dog_10_n02112706_4688.JPEG
vgg,7,795,NaN,chair,dog,c10,8475_con_dnn_c10_dog_10_n02093991_3639.JPEG
vgg,7,796,NaN,dog,dog,c10,8476_con_dnn_c10_dog_10_n02111277_472.JPEG
vgg,7,797,NaN,dog,dog,c10,8477_con_dnn_c10_dog_10_n02109047_17437.JPEG
vgg,7,798,NaN,dog,dog,c10,8478_con_dnn_c10_dog_10_n02089867_7861.JPEG
vgg,7,799,NaN,bear,dog,c10,8479_con_dnn_c10_dog_10_n02089867_8170.JPEG
vgg,7,800,NaN,dog,dog,c10,8480_con_dnn_c10_dog_10_n02097047_4848.JPEG
vgg,7,801,NaN,boat,knife,c05,8481_con_dnn_c05_knife_10_n03041632_55711.JPEG
vgg,7,802,NaN,truck,knife,c05,8482_con_dnn_c05_knife_10_n03041632_96361.JPEG
vgg,7,803,NaN,boat,knife,c05,8483_con_dnn_c05_knife_10_n03041632_2438.JPEG
vgg,7,804,NaN,boat,knife,c05,8484_con_dnn_c05_knife_10_n03041632_35365.JPEG
vgg,7,805,NaN,boat,knife,c05,8485_con_dnn_c05_knife_10_n03041632_7832.JPEG
vgg,7,806,NaN,knife,knife,c05,8486_con_dnn_c05_knife_10_n03041632_6309.JPEG
vgg,7,807,NaN,boat,knife,c05,8487_con_dnn_c05_knife_10_n03041632_45312.JPEG
vgg,7,808,NaN,boat,knife,c05,8488_con_dnn_c05_knife_10_n03041632_5820.JPEG
vgg,7,809,NaN,boat,knife,c05,8489_con_dnn_c05_knife_10_n03041632_24277.JPEG
vgg,7,810,NaN,boat,knife,c05,8490_con_dnn_c05_knife_10_n03041632_32377.JPEG
vgg,7,811,NaN,keyboard,keyboard,c05,8491_con_dnn_c05_keyboard_10_n03085013_19586.JPEG
vgg,7,812,NaN,bottle,keyboard,c05,8492_con_dnn_c05_keyboard_10_n03085013_108.JPEG
vgg,7,813,NaN,boat,keyboard,c05,8493_con_dnn_c05_keyboard_10_n04505470_4725.JPEG
vgg,7,814,NaN,boat,keyboard,c05,8494_con_dnn_c05_keyboard_10_n04505470_4620.JPEG
vgg,7,815,NaN,keyboard,keyboard,c05,8495_con_dnn_c05_keyboard_10_n03085013_23118.JPEG
vgg,7,816,NaN,keyboard,keyboard,c05,8496_con_dnn_c05_keyboard_10_n04505470_4477.JPEG
vgg,7,817,NaN,keyboard,keyboard,c05,8497_con_dnn_c05_keyboard_10_n04505470_5046.JPEG
vgg,7,818,NaN,bird,keyboard,c05,8498_con_dnn_c05_keyboard_10_n03085013_22013.JPEG
vgg,7,819,NaN,bottle,keyboard,c05,8499_con_dnn_c05_keyboard_10_n04505470_4806.JPEG
vgg,7,820,NaN,clock,keyboard,c05,8500_con_dnn_c05_keyboard_10_n03085013_23534.JPEG
vgg,7,821,NaN,bear,elephant,c05,8501_con_dnn_c05_elephant_10_n02504013_4139.JPEG
vgg,7,822,NaN,bear,elephant,c05,8502_con_dnn_c05_elephant_10_n02504458_6721.JPEG
vgg,7,823,NaN,bear,elephant,c05,8503_con_dnn_c05_elephant_10_n02504013_3138.JPEG
vgg,7,824,NaN,boat,elephant,c05,8504_con_dnn_c05_elephant_10_n02504458_5451.JPEG
vgg,7,825,NaN,elephant,elephant,c05,8505_con_dnn_c05_elephant_10_n02504013_1534.JPEG
vgg,7,826,NaN,clock,elephant,c05,8506_con_dnn_c05_elephant_10_n02504458_150.JPEG
vgg,7,827,NaN,boat,elephant,c05,8507_con_dnn_c05_elephant_10_n02504458_6433.JPEG
vgg,7,828,NaN,boat,elephant,c05,8508_con_dnn_c05_elephant_10_n02504458_8269.JPEG
vgg,7,829,NaN,boat,elephant,c05,8509_con_dnn_c05_elephant_10_n02504013_18498.JPEG
vgg,7,830,NaN,boat,elephant,c05,8510_con_dnn_c05_elephant_10_n02504013_7923.JPEG
vgg,7,831,NaN,boat,bicycle,c05,8511_con_dnn_c05_bicycle_10_n02835271_13396.JPEG
vgg,7,832,NaN,boat,bicycle,c05,8512_con_dnn_c05_bicycle_10_n03792782_49817.JPEG
vgg,7,833,NaN,boat,bicycle,c05,8513_con_dnn_c05_bicycle_10_n02835271_12263.JPEG
vgg,7,834,NaN,boat,bicycle,c05,8514_con_dnn_c05_bicycle_10_n03792782_15282.JPEG
vgg,7,835,NaN,boat,bicycle,c05,8515_con_dnn_c05_bicycle_10_n03792782_53662.JPEG
vgg,7,836,NaN,clock,bicycle,c05,8516_con_dnn_c05_bicycle_10_n02835271_949.JPEG
vgg,7,837,NaN,clock,bicycle,c05,8517_con_dnn_c05_bicycle_10_n03792782_16532.JPEG
vgg,7,838,NaN,boat,bicycle,c05,8518_con_dnn_c05_bicycle_10_n03792782_14424.JPEG
vgg,7,839,NaN,truck,bicycle,c05,8519_con_dnn_c05_bicycle_10_n02835271_12787.JPEG
vgg,7,840,NaN,boat,bicycle,c05,8520_con_dnn_c05_bicycle_10_n02835271_8563.JPEG
vgg,7,841,NaN,boat,airplane,c05,8521_con_dnn_c05_airplane_10_n02690373_283.JPEG
vgg,7,842,NaN,airplane,airplane,c05,8522_con_dnn_c05_airplane_10_n02690373_2498.JPEG
vgg,7,843,NaN,airplane,airplane,c05,8523_con_dnn_c05_airplane_10_n02690373_817.JPEG
vgg,7,844,NaN,airplane,airplane,c05,8524_con_dnn_c05_airplane_10_n02690373_6992.JPEG
vgg,7,845,NaN,airplane,airplane,c05,8525_con_dnn_c05_airplane_10_n02690373_2185.JPEG
vgg,7,846,NaN,boat,airplane,c05,8526_con_dnn_c05_airplane_10_n02690373_4195.JPEG
vgg,7,847,NaN,boat,airplane,c05,8527_con_dnn_c05_airplane_10_n02690373_17603.JPEG
vgg,7,848,NaN,boat,airplane,c05,8528_con_dnn_c05_airplane_10_n02690373_13585.JPEG
vgg,7,849,NaN,airplane,airplane,c05,8529_con_dnn_c05_airplane_10_n02690373_748.JPEG
vgg,7,850,NaN,airplane,airplane,c05,8530_con_dnn_c05_airplane_10_n02690373_3956.JPEG
vgg,7,851,NaN,clock,clock,c05,8531_con_dnn_c05_clock_10_n04548280_5166.JPEG
vgg,7,852,NaN,clock,clock,c05,8532_con_dnn_c05_clock_10_n02708093_6619.JPEG
vgg,7,853,NaN,boat,clock,c05,8533_con_dnn_c05_clock_10_n02708093_1733.JPEG
vgg,7,854,NaN,clock,clock,c05,8534_con_dnn_c05_clock_10_n02708093_2197.JPEG
vgg,7,855,NaN,clock,clock,c05,8535_con_dnn_c05_clock_10_n04548280_1025.JPEG
vgg,7,856,NaN,clock,clock,c05,8536_con_dnn_c05_clock_10_n02708093_3172.JPEG
vgg,7,857,NaN,bottle,clock,c05,8537_con_dnn_c05_clock_10_n03196217_219.JPEG
vgg,7,858,NaN,clock,clock,c05,8538_con_dnn_c05_clock_10_n04548280_8474.JPEG
vgg,7,859,NaN,clock,clock,c05,8539_con_dnn_c05_clock_10_n04548280_6099.JPEG
vgg,7,860,NaN,clock,clock,c05,8540_con_dnn_c05_clock_10_n04548280_5978.JPEG
vgg,7,861,NaN,clock,oven,c05,8541_con_dnn_c05_oven_10_n04111531_6211.JPEG
vgg,7,862,NaN,clock,oven,c05,8542_con_dnn_c05_oven_10_n04111531_8269.JPEG
vgg,7,863,NaN,clock,oven,c05,8543_con_dnn_c05_oven_10_n04111531_4189.JPEG
vgg,7,864,NaN,clock,oven,c05,8544_con_dnn_c05_oven_10_n04111531_2937.JPEG
vgg,7,865,NaN,boat,oven,c05,8545_con_dnn_c05_oven_10_n04111531_8462.JPEG
vgg,7,866,NaN,oven,oven,c05,8546_con_dnn_c05_oven_10_n04111531_14611.JPEG
vgg,7,867,NaN,boat,oven,c05,8547_con_dnn_c05_oven_10_n04111531_6903.JPEG
vgg,7,868,NaN,boat,oven,c05,8548_con_dnn_c05_oven_10_n04111531_807.JPEG
vgg,7,869,NaN,boat,oven,c05,8549_con_dnn_c05_oven_10_n04111531_1815.JPEG
vgg,7,870,NaN,boat,oven,c05,8550_con_dnn_c05_oven_10_n04111531_1398.JPEG
vgg,7,871,NaN,chair,chair,c05,8551_con_dnn_c05_chair_10_n02791124_3941.JPEG
vgg,7,872,NaN,chair,chair,c05,8552_con_dnn_c05_chair_10_n03376595_18546.JPEG
vgg,7,873,NaN,bottle,chair,c05,8553_con_dnn_c05_chair_10_n03376595_2716.JPEG
vgg,7,874,NaN,boat,chair,c05,8554_con_dnn_c05_chair_10_n04429376_5238.JPEG
vgg,7,875,NaN,boat,chair,c05,8555_con_dnn_c05_chair_10_n02791124_4777.JPEG
vgg,7,876,NaN,boat,chair,c05,8556_con_dnn_c05_chair_10_n04099969_18991.JPEG
vgg,7,877,NaN,clock,chair,c05,8557_con_dnn_c05_chair_10_n03376595_8064.JPEG
vgg,7,878,NaN,bottle,chair,c05,8558_con_dnn_c05_chair_10_n04099969_2177.JPEG
vgg,7,879,NaN,bottle,chair,c05,8559_con_dnn_c05_chair_10_n04099969_6825.JPEG
vgg,7,880,NaN,clock,chair,c05,8560_con_dnn_c05_chair_10_n04429376_619.JPEG
vgg,7,881,NaN,bird,bear,c05,8561_con_dnn_c05_bear_10_n02134418_4883.JPEG
vgg,7,882,NaN,bear,bear,c05,8562_con_dnn_c05_bear_10_n02134418_573.JPEG
vgg,7,883,NaN,bird,bear,c05,8563_con_dnn_c05_bear_10_n02134418_3495.JPEG
vgg,7,884,NaN,bear,bear,c05,8564_con_dnn_c05_bear_10_n02134084_8469.JPEG
vgg,7,885,NaN,boat,bear,c05,8565_con_dnn_c05_bear_10_n02134418_2604.JPEG
vgg,7,886,NaN,clock,bear,c05,8566_con_dnn_c05_bear_10_n02132136_462.JPEG
vgg,7,887,NaN,bottle,bear,c05,8567_con_dnn_c05_bear_10_n02133161_2670.JPEG
vgg,7,888,NaN,bear,bear,c05,8568_con_dnn_c05_bear_10_n02134084_983.JPEG
vgg,7,889,NaN,bear,bear,c05,8569_con_dnn_c05_bear_10_n02132136_13441.JPEG
vgg,7,890,NaN,boat,bear,c05,8570_con_dnn_c05_bear_10_n02132136_2982.JPEG
vgg,7,891,NaN,boat,boat,c05,8571_con_dnn_c05_boat_10_n03344393_3784.JPEG
vgg,7,892,NaN,boat,boat,c05,8572_con_dnn_c05_boat_10_n03344393_7065.JPEG
vgg,7,893,NaN,bird,boat,c05,8573_con_dnn_c05_boat_10_n02951358_26463.JPEG
vgg,7,894,NaN,boat,boat,c05,8574_con_dnn_c05_boat_10_n04612504_6842.JPEG
vgg,7,895,NaN,boat,boat,c05,8575_con_dnn_c05_boat_10_n03344393_11013.JPEG
vgg,7,896,NaN,boat,boat,c05,8576_con_dnn_c05_boat_10_n03344393_11310.JPEG
vgg,7,897,NaN,boat,boat,c05,8577_con_dnn_c05_boat_10_n02951358_52954.JPEG
vgg,7,898,NaN,boat,boat,c05,8578_con_dnn_c05_boat_10_n03662601_1968.JPEG
vgg,7,899,NaN,boat,boat,c05,8579_con_dnn_c05_boat_10_n04273569_10962.JPEG
vgg,7,900,NaN,boat,boat,c05,8580_con_dnn_c05_boat_10_n04273569_21984.JPEG
vgg,7,901,NaN,boat,cat,c05,8581_con_dnn_c05_cat_10_n02123159_6080.JPEG
vgg,7,902,NaN,clock,cat,c05,8582_con_dnn_c05_cat_10_n02123394_7559.JPEG
vgg,7,903,NaN,clock,cat,c05,8583_con_dnn_c05_cat_10_n02123045_11562.JPEG
vgg,7,904,NaN,clock,cat,c05,8584_con_dnn_c05_cat_10_n02124075_12460.JPEG
vgg,7,905,NaN,bear,cat,c05,8585_con_dnn_c05_cat_10_n02123045_5892.JPEG
vgg,7,906,NaN,boat,cat,c05,8586_con_dnn_c05_cat_10_n02123394_417.JPEG
vgg,7,907,NaN,boat,cat,c05,8587_con_dnn_c05_cat_10_n02123159_6483.JPEG
vgg,7,908,NaN,boat,cat,c05,8588_con_dnn_c05_cat_10_n02125311_10606.JPEG
vgg,7,909,NaN,boat,cat,c05,8589_con_dnn_c05_cat_10_n02125311_6399.JPEG
vgg,7,910,NaN,boat,cat,c05,8590_con_dnn_c05_cat_10_n02123597_6366.JPEG
vgg,7,911,NaN,boat,bottle,c05,8591_con_dnn_c05_bottle_10_n04560804_25678.JPEG
vgg,7,912,NaN,bottle,bottle,c05,8592_con_dnn_c05_bottle_10_n04579145_7460.JPEG
vgg,7,913,NaN,boat,bottle,c05,8593_con_dnn_c05_bottle_10_n03937543_3164.JPEG
vgg,7,914,NaN,boat,bottle,c05,8594_con_dnn_c05_bottle_10_n04560804_21531.JPEG
vgg,7,915,NaN,boat,bottle,c05,8595_con_dnn_c05_bottle_10_n04579145_34.JPEG
vgg,7,916,NaN,bottle,bottle,c05,8596_con_dnn_c05_bottle_10_n04560804_6095.JPEG
vgg,7,917,NaN,bottle,bottle,c05,8597_con_dnn_c05_bottle_10_n04560804_6672.JPEG
vgg,7,918,NaN,bottle,bottle,c05,8598_con_dnn_c05_bottle_10_n04560804_998.JPEG
vgg,7,919,NaN,clock,bottle,c05,8599_con_dnn_c05_bottle_10_n03937543_5917.JPEG
vgg,7,920,NaN,bottle,bottle,c05,8600_con_dnn_c05_bottle_10_n04557648_4922.JPEG
vgg,7,921,NaN,bottle,truck,c05,8601_con_dnn_c05_truck_10_n04467665_9031.JPEG
vgg,7,922,NaN,truck,truck,c05,8602_con_dnn_c05_truck_10_n04467665_3038.JPEG
vgg,7,923,NaN,boat,truck,c05,8603_con_dnn_c05_truck_10_n04467665_8955.JPEG
vgg,7,924,NaN,boat,truck,c05,8604_con_dnn_c05_truck_10_n03417042_8139.JPEG
vgg,7,925,NaN,boat,truck,c05,8605_con_dnn_c05_truck_10_n03417042_7422.JPEG
vgg,7,926,NaN,clock,truck,c05,8606_con_dnn_c05_truck_10_n04467665_4593.JPEG
vgg,7,927,NaN,truck,truck,c05,8607_con_dnn_c05_truck_10_n04467665_70733.JPEG
vgg,7,928,NaN,boat,truck,c05,8608_con_dnn_c05_truck_10_n03417042_1578.JPEG
vgg,7,929,NaN,truck,truck,c05,8609_con_dnn_c05_truck_10_n03796401_8581.JPEG
vgg,7,930,NaN,boat,truck,c05,8610_con_dnn_c05_truck_10_n03417042_12308.JPEG
vgg,7,931,NaN,boat,car,c05,8611_con_dnn_c05_car_10_n02814533_67600.JPEG
vgg,7,932,NaN,bottle,car,c05,8612_con_dnn_c05_car_10_n03100240_15795.JPEG
vgg,7,933,NaN,boat,car,c05,8613_con_dnn_c05_car_10_n02814533_65555.JPEG
vgg,7,934,NaN,boat,car,c05,8614_con_dnn_c05_car_10_n02814533_32693.JPEG
vgg,7,935,NaN,truck,car,c05,8615_con_dnn_c05_car_10_n04285008_11240.JPEG
vgg,7,936,NaN,boat,car,c05,8616_con_dnn_c05_car_10_n04285008_8075.JPEG
vgg,7,937,NaN,bear,car,c05,8617_con_dnn_c05_car_10_n02814533_27942.JPEG
vgg,7,938,NaN,truck,car,c05,8618_con_dnn_c05_car_10_n04285008_11781.JPEG
vgg,7,939,NaN,car,car,c05,8619_con_dnn_c05_car_10_n02814533_35888.JPEG
vgg,7,940,NaN,truck,car,c05,8620_con_dnn_c05_car_10_n04285008_16775.JPEG
vgg,7,941,NaN,boat,bird,c05,8621_con_dnn_c05_bird_10_n01601694_17557.JPEG
vgg,7,942,NaN,dog,bird,c05,8622_con_dnn_c05_bird_10_n01819313_6167.JPEG
vgg,7,943,NaN,boat,bird,c05,8623_con_dnn_c05_bird_10_n01616318_7911.JPEG
vgg,7,944,NaN,boat,bird,c05,8624_con_dnn_c05_bird_10_n02056570_9041.JPEG
vgg,7,945,NaN,bird,bird,c05,8625_con_dnn_c05_bird_10_n01855032_413.JPEG
vgg,7,946,NaN,boat,bird,c05,8626_con_dnn_c05_bird_10_n01843065_4853.JPEG
vgg,7,947,NaN,bear,bird,c05,8627_con_dnn_c05_bird_10_n01592084_23185.JPEG
vgg,7,948,NaN,bird,bird,c05,8628_con_dnn_c05_bird_10_n02017213_7387.JPEG
vgg,7,949,NaN,boat,bird,c05,8629_con_dnn_c05_bird_10_n01622779_9551.JPEG
vgg,7,950,NaN,boat,bird,c05,8630_con_dnn_c05_bird_10_n01531178_8650.JPEG
vgg,7,951,NaN,boat,dog,c05,8631_con_dnn_c05_dog_10_n02095889_471.JPEG
vgg,7,952,NaN,boat,dog,c05,8632_con_dnn_c05_dog_10_n02106030_4644.JPEG
vgg,7,953,NaN,dog,dog,c05,8633_con_dnn_c05_dog_10_n02085936_4809.JPEG
vgg,7,954,NaN,boat,dog,c05,8634_con_dnn_c05_dog_10_n02086646_4991.JPEG
vgg,7,955,NaN,boat,dog,c05,8635_con_dnn_c05_dog_10_n02097209_2201.JPEG
vgg,7,956,NaN,dog,dog,c05,8636_con_dnn_c05_dog_10_n02099267_19316.JPEG
vgg,7,957,NaN,boat,dog,c05,8637_con_dnn_c05_dog_10_n02112350_8324.JPEG
vgg,7,958,NaN,boat,dog,c05,8638_con_dnn_c05_dog_10_n02087394_22925.JPEG
vgg,7,959,NaN,boat,dog,c05,8639_con_dnn_c05_dog_10_n02092339_368.JPEG
vgg,7,960,NaN,boat,dog,c05,8640_con_dnn_c05_dog_10_n02105505_3767.JPEG
vgg,7,961,NaN,airplane,knife,c03,8641_con_dnn_c03_knife_10_n03041632_93026.JPEG
vgg,7,962,NaN,boat,knife,c03,8642_con_dnn_c03_knife_10_n03041632_1671.JPEG
vgg,7,963,NaN,boat,knife,c03,8643_con_dnn_c03_knife_10_n03041632_21477.JPEG
vgg,7,964,NaN,boat,knife,c03,8644_con_dnn_c03_knife_10_n03041632_6708.JPEG
vgg,7,965,NaN,bird,knife,c03,8645_con_dnn_c03_knife_10_n03041632_965.JPEG
vgg,7,966,NaN,boat,knife,c03,8646_con_dnn_c03_knife_10_n03041632_737.JPEG
vgg,7,967,NaN,boat,knife,c03,8647_con_dnn_c03_knife_10_n03041632_32197.JPEG
vgg,7,968,NaN,boat,knife,c03,8648_con_dnn_c03_knife_10_n03041632_4787.JPEG
vgg,7,969,NaN,boat,knife,c03,8649_con_dnn_c03_knife_10_n03041632_4279.JPEG
vgg,7,970,NaN,clock,knife,c03,8650_con_dnn_c03_knife_10_n03041632_1964.JPEG
vgg,7,971,NaN,airplane,keyboard,c03,8651_con_dnn_c03_keyboard_10_n04505470_5346.JPEG
vgg,7,972,NaN,bird,keyboard,c03,8652_con_dnn_c03_keyboard_10_n03085013_5579.JPEG
vgg,7,973,NaN,knife,keyboard,c03,8653_con_dnn_c03_keyboard_10_n03085013_23658.JPEG
vgg,7,974,NaN,clock,keyboard,c03,8654_con_dnn_c03_keyboard_10_n04505470_4484.JPEG
vgg,7,975,NaN,bird,keyboard,c03,8655_con_dnn_c03_keyboard_10_n04505470_8749.JPEG
vgg,7,976,NaN,keyboard,keyboard,c03,8656_con_dnn_c03_keyboard_10_n03085013_24102.JPEG
vgg,7,977,NaN,keyboard,keyboard,c03,8657_con_dnn_c03_keyboard_10_n03085013_4012.JPEG
vgg,7,978,NaN,boat,keyboard,c03,8658_con_dnn_c03_keyboard_10_n03085013_2362.JPEG
vgg,7,979,NaN,bottle,keyboard,c03,8659_con_dnn_c03_keyboard_10_n03085013_20388.JPEG
vgg,7,980,NaN,boat,keyboard,c03,8660_con_dnn_c03_keyboard_10_n03085013_18668.JPEG
vgg,7,981,NaN,boat,elephant,c03,8661_con_dnn_c03_elephant_10_n02504013_10802.JPEG
vgg,7,982,NaN,boat,elephant,c03,8662_con_dnn_c03_elephant_10_n02504458_66.JPEG
vgg,7,983,NaN,boat,elephant,c03,8663_con_dnn_c03_elephant_10_n02504458_8134.JPEG
vgg,7,984,NaN,boat,elephant,c03,8664_con_dnn_c03_elephant_10_n02504013_18036.JPEG
vgg,7,985,NaN,boat,elephant,c03,8665_con_dnn_c03_elephant_10_n02504458_4979.JPEG
vgg,7,986,NaN,boat,elephant,c03,8666_con_dnn_c03_elephant_10_n02504013_8308.JPEG
vgg,7,987,NaN,boat,elephant,c03,8667_con_dnn_c03_elephant_10_n02504458_5858.JPEG
vgg,7,988,NaN,boat,elephant,c03,8668_con_dnn_c03_elephant_10_n02504458_6119.JPEG
vgg,7,989,NaN,boat,elephant,c03,8669_con_dnn_c03_elephant_10_n02504458_4861.JPEG
vgg,7,990,NaN,boat,elephant,c03,8670_con_dnn_c03_elephant_10_n02504458_7331.JPEG
vgg,7,991,NaN,clock,bicycle,c03,8671_con_dnn_c03_bicycle_10_n02835271_439.JPEG
vgg,7,992,NaN,clock,bicycle,c03,8672_con_dnn_c03_bicycle_10_n03792782_4604.JPEG
vgg,7,993,NaN,bird,bicycle,c03,8673_con_dnn_c03_bicycle_10_n03792782_30362.JPEG
vgg,7,994,NaN,bird,bicycle,c03,8674_con_dnn_c03_bicycle_10_n03792782_24763.JPEG
vgg,7,995,NaN,clock,bicycle,c03,8675_con_dnn_c03_bicycle_10_n02835271_2714.JPEG
vgg,7,996,NaN,boat,bicycle,c03,8676_con_dnn_c03_bicycle_10_n02835271_1530.JPEG
vgg,7,997,NaN,dog,bicycle,c03,8677_con_dnn_c03_bicycle_10_n03792782_11720.JPEG
vgg,7,998,NaN,boat,bicycle,c03,8678_con_dnn_c03_bicycle_10_n03792782_7477.JPEG
vgg,7,999,NaN,boat,bicycle,c03,8679_con_dnn_c03_bicycle_10_n03792782_8840.JPEG
vgg,7,1000,NaN,dog,bicycle,c03,8680_con_dnn_c03_bicycle_10_n03792782_2525.JPEG
vgg,7,1001,NaN,airplane,airplane,c03,8681_con_dnn_c03_airplane_10_n02690373_1206.JPEG
vgg,7,1002,NaN,boat,airplane,c03,8682_con_dnn_c03_airplane_10_n02690373_3860.JPEG
vgg,7,1003,NaN,bird,airplane,c03,8683_con_dnn_c03_airplane_10_n02690373_4119.JPEG
vgg,7,1004,NaN,airplane,airplane,c03,8684_con_dnn_c03_airplane_10_n02690373_4495.JPEG
vgg,7,1005,NaN,boat,airplane,c03,8685_con_dnn_c03_airplane_10_n02690373_2203.JPEG
vgg,7,1006,NaN,bird,airplane,c03,8686_con_dnn_c03_airplane_10_n02690373_466.JPEG
vgg,7,1007,NaN,boat,airplane,c03,8687_con_dnn_c03_airplane_10_n02690373_971.JPEG
vgg,7,1008,NaN,bear,airplane,c03,8688_con_dnn_c03_airplane_10_n02690373_9743.JPEG
vgg,7,1009,NaN,airplane,airplane,c03,8689_con_dnn_c03_airplane_10_n02690373_8175.JPEG
vgg,7,1010,NaN,boat,airplane,c03,8690_con_dnn_c03_airplane_10_n02690373_1589.JPEG
vgg,7,1011,NaN,clock,clock,c03,8691_con_dnn_c03_clock_10_n04548280_9743.JPEG
vgg,7,1012,NaN,boat,clock,c03,8692_con_dnn_c03_clock_10_n02708093_7122.JPEG
vgg,7,1013,NaN,boat,clock,c03,8693_con_dnn_c03_clock_10_n03196217_5469.JPEG
vgg,7,1014,NaN,knife,clock,c03,8694_con_dnn_c03_clock_10_n02708093_4387.JPEG
vgg,7,1015,NaN,knife,clock,c03,8695_con_dnn_c03_clock_10_n04548280_6246.JPEG
vgg,7,1016,NaN,bottle,clock,c03,8696_con_dnn_c03_clock_10_n04548280_5692.JPEG
vgg,7,1017,NaN,boat,clock,c03,8697_con_dnn_c03_clock_10_n02708093_3674.JPEG
vgg,7,1018,NaN,clock,clock,c03,8698_con_dnn_c03_clock_10_n04548280_8454.JPEG
vgg,7,1019,NaN,boat,clock,c03,8699_con_dnn_c03_clock_10_n02708093_4783.JPEG
vgg,7,1020,NaN,boat,clock,c03,8700_con_dnn_c03_clock_10_n02708093_7821.JPEG
vgg,7,1021,NaN,clock,oven,c03,8701_con_dnn_c03_oven_10_n04111531_4418.JPEG
vgg,7,1022,NaN,boat,oven,c03,8702_con_dnn_c03_oven_10_n04111531_11265.JPEG
vgg,7,1023,NaN,boat,oven,c03,8703_con_dnn_c03_oven_10_n04111531_6756.JPEG
vgg,7,1024,NaN,boat,oven,c03,8704_con_dnn_c03_oven_10_n04111531_3202.JPEG
vgg,7,1025,NaN,clock,oven,c03,8705_con_dnn_c03_oven_10_n04111531_14208.JPEG
vgg,7,1026,NaN,boat,oven,c03,8706_con_dnn_c03_oven_10_n04111531_13296.JPEG
vgg,7,1027,NaN,boat,oven,c03,8707_con_dnn_c03_oven_10_n04111531_2260.JPEG
vgg,7,1028,NaN,boat,oven,c03,8708_con_dnn_c03_oven_10_n04111531_5279.JPEG
vgg,7,1029,NaN,boat,oven,c03,8709_con_dnn_c03_oven_10_n04111531_7034.JPEG
vgg,7,1030,NaN,boat,oven,c03,8710_con_dnn_c03_oven_10_n04111531_10537.JPEG
vgg,7,1031,NaN,boat,chair,c03,8711_con_dnn_c03_chair_10_n04429376_17171.JPEG
vgg,7,1032,NaN,boat,chair,c03,8712_con_dnn_c03_chair_10_n04429376_10158.JPEG
vgg,7,1033,NaN,clock,chair,c03,8713_con_dnn_c03_chair_10_n04099969_6425.JPEG
vgg,7,1034,NaN,boat,chair,c03,8714_con_dnn_c03_chair_10_n04099969_8478.JPEG
vgg,7,1035,NaN,boat,chair,c03,8715_con_dnn_c03_chair_10_n04099969_25085.JPEG
vgg,7,1036,NaN,clock,chair,c03,8716_con_dnn_c03_chair_10_n03376595_10507.JPEG
vgg,7,1037,NaN,clock,chair,c03,8717_con_dnn_c03_chair_10_n03376595_18787.JPEG
vgg,7,1038,NaN,clock,chair,c03,8718_con_dnn_c03_chair_10_n02791124_3817.JPEG
vgg,7,1039,NaN,clock,chair,c03,8719_con_dnn_c03_chair_10_n02791124_923.JPEG
vgg,7,1040,NaN,chair,chair,c03,8720_con_dnn_c03_chair_10_n04429376_28627.JPEG
vgg,7,1041,NaN,boat,bear,c03,8721_con_dnn_c03_bear_10_n02134418_11090.JPEG
vgg,7,1042,NaN,boat,bear,c03,8722_con_dnn_c03_bear_10_n02134084_7532.JPEG
vgg,7,1043,NaN,bird,bear,c03,8723_con_dnn_c03_bear_10_n02132136_1467.JPEG
vgg,7,1044,NaN,boat,bear,c03,8724_con_dnn_c03_bear_10_n02134084_18375.JPEG
vgg,7,1045,NaN,boat,bear,c03,8725_con_dnn_c03_bear_10_n02134418_4959.JPEG
vgg,7,1046,NaN,boat,bear,c03,8726_con_dnn_c03_bear_10_n02134418_2891.JPEG
vgg,7,1047,NaN,boat,bear,c03,8727_con_dnn_c03_bear_10_n02134418_3969.JPEG
vgg,7,1048,NaN,boat,bear,c03,8728_con_dnn_c03_bear_10_n02134084_15888.JPEG
vgg,7,1049,NaN,clock,bear,c03,8729_con_dnn_c03_bear_10_n02134418_3039.JPEG
vgg,7,1050,NaN,boat,bear,c03,8730_con_dnn_c03_bear_10_n02134084_24140.JPEG
vgg,7,1051,NaN,boat,boat,c03,8731_con_dnn_c03_boat_10_n03344393_7856.JPEG
vgg,7,1052,NaN,airplane,boat,c03,8732_con_dnn_c03_boat_10_n03344393_9918.JPEG
vgg,7,1053,NaN,bear,boat,c03,8733_con_dnn_c03_boat_10_n03662601_22186.JPEG
vgg,7,1054,NaN,boat,boat,c03,8734_con_dnn_c03_boat_10_n03662601_34360.JPEG
vgg,7,1055,NaN,boat,boat,c03,8735_con_dnn_c03_boat_10_n03662601_10065.JPEG
vgg,7,1056,NaN,airplane,boat,c03,8736_con_dnn_c03_boat_10_n03662601_6085.JPEG
vgg,7,1057,NaN,airplane,boat,c03,8737_con_dnn_c03_boat_10_n03344393_202.JPEG
vgg,7,1058,NaN,boat,boat,c03,8738_con_dnn_c03_boat_10_n02951358_15271.JPEG
vgg,7,1059,NaN,boat,boat,c03,8739_con_dnn_c03_boat_10_n02951358_2991.JPEG
vgg,7,1060,NaN,boat,boat,c03,8740_con_dnn_c03_boat_10_n02951358_14624.JPEG
vgg,7,1061,NaN,boat,cat,c03,8741_con_dnn_c03_cat_10_n02123597_295.JPEG
vgg,7,1062,NaN,boat,cat,c03,8742_con_dnn_c03_cat_10_n02124075_11168.JPEG
vgg,7,1063,NaN,boat,cat,c03,8743_con_dnn_c03_cat_10_n02123394_1626.JPEG
vgg,7,1064,NaN,boat,cat,c03,8744_con_dnn_c03_cat_10_n02123159_7089.JPEG
vgg,7,1065,NaN,clock,cat,c03,8745_con_dnn_c03_cat_10_n02123597_13800.JPEG
vgg,7,1066,NaN,boat,cat,c03,8746_con_dnn_c03_cat_10_n02123394_5042.JPEG
vgg,7,1067,NaN,boat,cat,c03,8747_con_dnn_c03_cat_10_n02123159_4300.JPEG
vgg,7,1068,NaN,boat,cat,c03,8748_con_dnn_c03_cat_10_n02123597_556.JPEG
vgg,7,1069,NaN,boat,cat,c03,8749_con_dnn_c03_cat_10_n02124075_12382.JPEG
vgg,7,1070,NaN,clock,cat,c03,8750_con_dnn_c03_cat_10_n02123045_6320.JPEG
vgg,7,1071,NaN,bottle,bottle,c03,8751_con_dnn_c03_bottle_10_n04591713_3597.JPEG
vgg,7,1072,NaN,boat,bottle,c03,8752_con_dnn_c03_bottle_10_n03937543_2674.JPEG
vgg,7,1073,NaN,boat,bottle,c03,8753_con_dnn_c03_bottle_10_n03937543_3915.JPEG
vgg,7,1074,NaN,boat,bottle,c03,8754_con_dnn_c03_bottle_10_n03983396_6011.JPEG
vgg,7,1075,NaN,bottle,bottle,c03,8755_con_dnn_c03_bottle_10_n04579145_1443.JPEG
vgg,7,1076,NaN,boat,bottle,c03,8756_con_dnn_c03_bottle_10_n04560804_33251.JPEG
vgg,7,1077,NaN,bottle,bottle,c03,8757_con_dnn_c03_bottle_10_n04560804_14792.JPEG
vgg,7,1078,NaN,boat,bottle,c03,8758_con_dnn_c03_bottle_10_n04557648_2714.JPEG
vgg,7,1079,NaN,boat,bottle,c03,8759_con_dnn_c03_bottle_10_n04591713_6069.JPEG
vgg,7,1080,NaN,boat,bottle,c03,8760_con_dnn_c03_bottle_10_n04560804_5421.JPEG
vgg,7,1081,NaN,boat,truck,c03,8761_con_dnn_c03_truck_10_n03417042_3857.JPEG
vgg,7,1082,NaN,boat,truck,c03,8762_con_dnn_c03_truck_10_n03796401_5933.JPEG
vgg,7,1083,NaN,truck,truck,c03,8763_con_dnn_c03_truck_10_n03796401_2767.JPEG
vgg,7,1084,NaN,boat,truck,c03,8764_con_dnn_c03_truck_10_n03796401_2751.JPEG
vgg,7,1085,NaN,clock,truck,c03,8765_con_dnn_c03_truck_10_n03796401_430.JPEG
vgg,7,1086,NaN,boat,truck,c03,8766_con_dnn_c03_truck_10_n04467665_4872.JPEG
vgg,7,1087,NaN,truck,truck,c03,8767_con_dnn_c03_truck_10_n04467665_3281.JPEG
vgg,7,1088,NaN,bird,truck,c03,8768_con_dnn_c03_truck_10_n03796401_1773.JPEG
vgg,7,1089,NaN,boat,truck,c03,8769_con_dnn_c03_truck_10_n04467665_5606.JPEG
vgg,7,1090,NaN,boat,truck,c03,8770_con_dnn_c03_truck_10_n03796401_3386.JPEG
vgg,7,1091,NaN,boat,car,c03,8771_con_dnn_c03_car_10_n04285008_10884.JPEG
vgg,7,1092,NaN,boat,car,c03,8772_con_dnn_c03_car_10_n03100240_409.JPEG
vgg,7,1093,NaN,boat,car,c03,8773_con_dnn_c03_car_10_n03100240_12148.JPEG
vgg,7,1094,NaN,boat,car,c03,8774_con_dnn_c03_car_10_n03100240_8480.JPEG
vgg,7,1095,NaN,bear,car,c03,8775_con_dnn_c03_car_10_n02814533_83237.JPEG
vgg,7,1096,NaN,bottle,car,c03,8776_con_dnn_c03_car_10_n02814533_75014.JPEG
vgg,7,1097,NaN,boat,car,c03,8777_con_dnn_c03_car_10_n03100240_5160.JPEG
vgg,7,1098,NaN,boat,car,c03,8778_con_dnn_c03_car_10_n04285008_11352.JPEG
vgg,7,1099,NaN,boat,car,c03,8779_con_dnn_c03_car_10_n03100240_9683.JPEG
vgg,7,1100,NaN,boat,car,c03,8780_con_dnn_c03_car_10_n04285008_11744.JPEG
vgg,7,1101,NaN,boat,bird,c03,8781_con_dnn_c03_bird_10_n01820546_1634.JPEG
vgg,7,1102,NaN,boat,bird,c03,8782_con_dnn_c03_bird_10_n01531178_19190.JPEG
vgg,7,1103,NaN,bird,bird,c03,8783_con_dnn_c03_bird_10_n01828970_16456.JPEG
vgg,7,1104,NaN,bird,bird,c03,8784_con_dnn_c03_bird_10_n02051845_1682.JPEG
vgg,7,1105,NaN,boat,bird,c03,8785_con_dnn_c03_bird_10_n01616318_4102.JPEG
vgg,7,1106,NaN,boat,bird,c03,8786_con_dnn_c03_bird_10_n01855672_3750.JPEG
vgg,7,1107,NaN,bird,bird,c03,8787_con_dnn_c03_bird_10_n02051845_15407.JPEG
vgg,7,1108,NaN,boat,bird,c03,8788_con_dnn_c03_bird_10_n01829413_5849.JPEG
vgg,7,1109,NaN,boat,bird,c03,8789_con_dnn_c03_bird_10_n02007558_3526.JPEG
vgg,7,1110,NaN,boat,bird,c03,8790_con_dnn_c03_bird_10_n01560419_7915.JPEG
vgg,7,1111,NaN,boat,dog,c03,8791_con_dnn_c03_dog_10_n02106030_14146.JPEG
vgg,7,1112,NaN,boat,dog,c03,8792_con_dnn_c03_dog_10_n02095570_2494.JPEG
vgg,7,1113,NaN,boat,dog,c03,8793_con_dnn_c03_dog_10_n02087394_4043.JPEG
vgg,7,1114,NaN,bird,dog,c03,8794_con_dnn_c03_dog_10_n02094258_6311.JPEG
vgg,7,1115,NaN,boat,dog,c03,8795_con_dnn_c03_dog_10_n02093754_4448.JPEG
vgg,7,1116,NaN,boat,dog,c03,8796_con_dnn_c03_dog_10_n02102177_7155.JPEG
vgg,7,1117,NaN,boat,dog,c03,8797_con_dnn_c03_dog_10_n02095570_280.JPEG
vgg,7,1118,NaN,boat,dog,c03,8798_con_dnn_c03_dog_10_n02102040_844.JPEG
vgg,7,1119,NaN,boat,dog,c03,8799_con_dnn_c03_dog_10_n02107574_5273.JPEG
vgg,7,1120,NaN,boat,dog,c03,8800_con_dnn_c03_dog_10_n02108915_9457.JPEG
vgg,7,1121,NaN,clock,knife,c01,8801_con_dnn_c01_knife_10_n03041632_15299.JPEG
vgg,7,1122,NaN,bird,knife,c01,8802_con_dnn_c01_knife_10_n03041632_22214.JPEG
vgg,7,1123,NaN,boat,knife,c01,8803_con_dnn_c01_knife_10_n03041632_17067.JPEG
vgg,7,1124,NaN,boat,knife,c01,8804_con_dnn_c01_knife_10_n03041632_36789.JPEG
vgg,7,1125,NaN,airplane,knife,c01,8805_con_dnn_c01_knife_10_n03041632_16606.JPEG
vgg,7,1126,NaN,boat,knife,c01,8806_con_dnn_c01_knife_10_n03041632_2390.JPEG
vgg,7,1127,NaN,bird,knife,c01,8807_con_dnn_c01_knife_10_n03041632_37536.JPEG
vgg,7,1128,NaN,boat,knife,c01,8808_con_dnn_c01_knife_10_n03041632_30801.JPEG
vgg,7,1129,NaN,bird,knife,c01,8809_con_dnn_c01_knife_10_n03041632_17100.JPEG
vgg,7,1130,NaN,clock,knife,c01,8810_con_dnn_c01_knife_10_n03041632_18304.JPEG
vgg,7,1131,NaN,boat,keyboard,c01,8811_con_dnn_c01_keyboard_10_n04505470_1581.JPEG
vgg,7,1132,NaN,airplane,keyboard,c01,8812_con_dnn_c01_keyboard_10_n03085013_14764.JPEG
vgg,7,1133,NaN,bird,keyboard,c01,8813_con_dnn_c01_keyboard_10_n03085013_20923.JPEG
vgg,7,1134,NaN,airplane,keyboard,c01,8814_con_dnn_c01_keyboard_10_n03085013_17305.JPEG
vgg,7,1135,NaN,boat,keyboard,c01,8815_con_dnn_c01_keyboard_10_n04505470_486.JPEG
vgg,7,1136,NaN,bird,keyboard,c01,8816_con_dnn_c01_keyboard_10_n03085013_3439.JPEG
vgg,7,1137,NaN,airplane,keyboard,c01,8817_con_dnn_c01_keyboard_10_n03085013_8677.JPEG
vgg,7,1138,NaN,boat,keyboard,c01,8818_con_dnn_c01_keyboard_10_n04505470_4579.JPEG
vgg,7,1139,NaN,airplane,keyboard,c01,8819_con_dnn_c01_keyboard_10_n03085013_24566.JPEG
vgg,7,1140,NaN,clock,keyboard,c01,8820_con_dnn_c01_keyboard_10_n04505470_788.JPEG
vgg,7,1141,NaN,boat,elephant,c01,8821_con_dnn_c01_elephant_10_n02504458_13382.JPEG
vgg,7,1142,NaN,boat,elephant,c01,8822_con_dnn_c01_elephant_10_n02504458_5746.JPEG
vgg,7,1143,NaN,bird,elephant,c01,8823_con_dnn_c01_elephant_10_n02504458_4950.JPEG
vgg,7,1144,NaN,airplane,elephant,c01,8824_con_dnn_c01_elephant_10_n02504458_7841.JPEG
vgg,7,1145,NaN,airplane,elephant,c01,8825_con_dnn_c01_elephant_10_n02504458_567.JPEG
vgg,7,1146,NaN,boat,elephant,c01,8826_con_dnn_c01_elephant_10_n02504458_3656.JPEG
vgg,7,1147,NaN,bird,elephant,c01,8827_con_dnn_c01_elephant_10_n02504013_10156.JPEG
vgg,7,1148,NaN,bird,elephant,c01,8828_con_dnn_c01_elephant_10_n02504013_5201.JPEG
vgg,7,1149,NaN,boat,elephant,c01,8829_con_dnn_c01_elephant_10_n02504013_5918.JPEG
vgg,7,1150,NaN,boat,elephant,c01,8830_con_dnn_c01_elephant_10_n02504013_16929.JPEG
vgg,7,1151,NaN,boat,bicycle,c01,8831_con_dnn_c01_bicycle_10_n02835271_8324.JPEG
vgg,7,1152,NaN,bird,bicycle,c01,8832_con_dnn_c01_bicycle_10_n02835271_8439.JPEG
vgg,7,1153,NaN,airplane,bicycle,c01,8833_con_dnn_c01_bicycle_10_n02835271_13919.JPEG
vgg,7,1154,NaN,clock,bicycle,c01,8834_con_dnn_c01_bicycle_10_n03792782_1475.JPEG
vgg,7,1155,NaN,bird,bicycle,c01,8835_con_dnn_c01_bicycle_10_n02835271_6563.JPEG
vgg,7,1156,NaN,bird,bicycle,c01,8836_con_dnn_c01_bicycle_10_n03792782_18947.JPEG
vgg,7,1157,NaN,boat,bicycle,c01,8837_con_dnn_c01_bicycle_10_n02835271_8596.JPEG
vgg,7,1158,NaN,bird,bicycle,c01,8838_con_dnn_c01_bicycle_10_n03792782_613.JPEG
vgg,7,1159,NaN,boat,bicycle,c01,8839_con_dnn_c01_bicycle_10_n03792782_5758.JPEG
vgg,7,1160,NaN,clock,bicycle,c01,8840_con_dnn_c01_bicycle_10_n03792782_850.JPEG
vgg,7,1161,NaN,bird,airplane,c01,8841_con_dnn_c01_airplane_10_n02690373_5277.JPEG
vgg,7,1162,NaN,bird,airplane,c01,8842_con_dnn_c01_airplane_10_n02690373_20011.JPEG
vgg,7,1163,NaN,bird,airplane,c01,8843_con_dnn_c01_airplane_10_n02690373_8214.JPEG
vgg,7,1164,NaN,bird,airplane,c01,8844_con_dnn_c01_airplane_10_n02690373_8846.JPEG
vgg,7,1165,NaN,bird,airplane,c01,8845_con_dnn_c01_airplane_10_n02690373_3539.JPEG
vgg,7,1166,NaN,boat,airplane,c01,8846_con_dnn_c01_airplane_10_n02690373_764.JPEG
vgg,7,1167,NaN,bird,airplane,c01,8847_con_dnn_c01_airplane_10_n02690373_220.JPEG
vgg,7,1168,NaN,bird,airplane,c01,8848_con_dnn_c01_airplane_10_n02690373_9529.JPEG
vgg,7,1169,NaN,bird,airplane,c01,8849_con_dnn_c01_airplane_10_n02690373_7457.JPEG
vgg,7,1170,NaN,bird,airplane,c01,8850_con_dnn_c01_airplane_10_n02690373_8521.JPEG
vgg,7,1171,NaN,clock,clock,c01,8851_con_dnn_c01_clock_10_n03196217_7968.JPEG
vgg,7,1172,NaN,boat,clock,c01,8852_con_dnn_c01_clock_10_n02708093_1532.JPEG
vgg,7,1173,NaN,clock,clock,c01,8853_con_dnn_c01_clock_10_n04548280_5408.JPEG
vgg,7,1174,NaN,bird,clock,c01,8854_con_dnn_c01_clock_10_n04548280_3799.JPEG
vgg,7,1175,NaN,bird,clock,c01,8855_con_dnn_c01_clock_10_n04548280_4666.JPEG
vgg,7,1176,NaN,bird,clock,c01,8856_con_dnn_c01_clock_10_n02708093_3496.JPEG
vgg,7,1177,NaN,boat,clock,c01,8857_con_dnn_c01_clock_10_n03196217_8999.JPEG
vgg,7,1178,NaN,bird,clock,c01,8858_con_dnn_c01_clock_10_n04548280_9816.JPEG
vgg,7,1179,NaN,boat,clock,c01,8859_con_dnn_c01_clock_10_n04548280_10335.JPEG
vgg,7,1180,NaN,boat,clock,c01,8860_con_dnn_c01_clock_10_n03196217_7026.JPEG
vgg,7,1181,NaN,airplane,oven,c01,8861_con_dnn_c01_oven_10_n04111531_5077.JPEG
vgg,7,1182,NaN,airplane,oven,c01,8862_con_dnn_c01_oven_10_n04111531_7050.JPEG
vgg,7,1183,NaN,boat,oven,c01,8863_con_dnn_c01_oven_10_n04111531_7283.JPEG
vgg,7,1184,NaN,boat,oven,c01,8864_con_dnn_c01_oven_10_n04111531_12843.JPEG
vgg,7,1185,NaN,boat,oven,c01,8865_con_dnn_c01_oven_10_n04111531_9455.JPEG
vgg,7,1186,NaN,airplane,oven,c01,8866_con_dnn_c01_oven_10_n04111531_12053.JPEG
vgg,7,1187,NaN,airplane,oven,c01,8867_con_dnn_c01_oven_10_n04111531_3902.JPEG
vgg,7,1188,NaN,knife,oven,c01,8868_con_dnn_c01_oven_10_n04111531_20359.JPEG
vgg,7,1189,NaN,clock,oven,c01,8869_con_dnn_c01_oven_10_n04111531_6783.JPEG
vgg,7,1190,NaN,boat,oven,c01,8870_con_dnn_c01_oven_10_n04111531_4467.JPEG
vgg,7,1191,NaN,boat,chair,c01,8871_con_dnn_c01_chair_10_n03376595_262.JPEG
vgg,7,1192,NaN,clock,chair,c01,8872_con_dnn_c01_chair_10_n03376595_8012.JPEG
vgg,7,1193,NaN,boat,chair,c01,8873_con_dnn_c01_chair_10_n04099969_34656.JPEG
vgg,7,1194,NaN,bird,chair,c01,8874_con_dnn_c01_chair_10_n03376595_89.JPEG
vgg,7,1195,NaN,bird,chair,c01,8875_con_dnn_c01_chair_10_n04099969_19264.JPEG
vgg,7,1196,NaN,bird,chair,c01,8876_con_dnn_c01_chair_10_n04429376_15544.JPEG
vgg,7,1197,NaN,boat,chair,c01,8877_con_dnn_c01_chair_10_n04429376_27697.JPEG
vgg,7,1198,NaN,bird,chair,c01,8878_con_dnn_c01_chair_10_n04099969_1802.JPEG
vgg,7,1199,NaN,bird,chair,c01,8879_con_dnn_c01_chair_10_n02791124_2772.JPEG
vgg,7,1200,NaN,boat,chair,c01,8880_con_dnn_c01_chair_10_n03376595_2534.JPEG
vgg,7,1201,NaN,airplane,bear,c01,8881_con_dnn_c01_bear_10_n02134084_4339.JPEG
vgg,7,1202,NaN,boat,bear,c01,8882_con_dnn_c01_bear_10_n02133161_12739.JPEG
vgg,7,1203,NaN,airplane,bear,c01,8883_con_dnn_c01_bear_10_n02133161_10257.JPEG
vgg,7,1204,NaN,bird,bear,c01,8884_con_dnn_c01_bear_10_n02134084_9248.JPEG
vgg,7,1205,NaN,airplane,bear,c01,8885_con_dnn_c01_bear_10_n02133161_7390.JPEG
vgg,7,1206,NaN,boat,bear,c01,8886_con_dnn_c01_bear_10_n02134084_6935.JPEG
vgg,7,1207,NaN,bird,bear,c01,8887_con_dnn_c01_bear_10_n02133161_1764.JPEG
vgg,7,1208,NaN,bird,bear,c01,8888_con_dnn_c01_bear_10_n02132136_149.JPEG
vgg,7,1209,NaN,boat,bear,c01,8889_con_dnn_c01_bear_10_n02132136_9965.JPEG
vgg,7,1210,NaN,boat,bear,c01,8890_con_dnn_c01_bear_10_n02133161_1715.JPEG
vgg,7,1211,NaN,airplane,boat,c01,8891_con_dnn_c01_boat_10_n02951358_474.JPEG
vgg,7,1212,NaN,bird,boat,c01,8892_con_dnn_c01_boat_10_n04273569_21470.JPEG
vgg,7,1213,NaN,boat,boat,c01,8893_con_dnn_c01_boat_10_n03662601_14014.JPEG
vgg,7,1214,NaN,airplane,boat,c01,8894_con_dnn_c01_boat_10_n02951358_11271.JPEG
vgg,7,1215,NaN,bird,boat,c01,8895_con_dnn_c01_boat_10_n04273569_210.JPEG
vgg,7,1216,NaN,boat,boat,c01,8896_con_dnn_c01_boat_10_n03344393_5091.JPEG
vgg,7,1217,NaN,bird,boat,c01,8897_con_dnn_c01_boat_10_n03344393_4873.JPEG
vgg,7,1218,NaN,bird,boat,c01,8898_con_dnn_c01_boat_10_n03344393_2882.JPEG
vgg,7,1219,NaN,airplane,boat,c01,8899_con_dnn_c01_boat_10_n02951358_18762.JPEG
vgg,7,1220,NaN,airplane,boat,c01,8900_con_dnn_c01_boat_10_n02951358_31811.JPEG
vgg,7,1221,NaN,airplane,cat,c01,8901_con_dnn_c01_cat_10_n02123159_2101.JPEG
vgg,7,1222,NaN,bird,cat,c01,8902_con_dnn_c01_cat_10_n02124075_15143.JPEG
vgg,7,1223,NaN,bird,cat,c01,8903_con_dnn_c01_cat_10_n02125311_45242.JPEG
vgg,7,1224,NaN,boat,cat,c01,8904_con_dnn_c01_cat_10_n02123045_12706.JPEG
vgg,7,1225,NaN,boat,cat,c01,8905_con_dnn_c01_cat_10_n02123394_2771.JPEG
vgg,7,1226,NaN,clock,cat,c01,8906_con_dnn_c01_cat_10_n02123045_2536.JPEG
vgg,7,1227,NaN,airplane,cat,c01,8907_con_dnn_c01_cat_10_n02124075_11788.JPEG
vgg,7,1228,NaN,boat,cat,c01,8908_con_dnn_c01_cat_10_n02123159_6095.JPEG
vgg,7,1229,NaN,boat,cat,c01,8909_con_dnn_c01_cat_10_n02123045_4611.JPEG
vgg,7,1230,NaN,clock,cat,c01,8910_con_dnn_c01_cat_10_n02125311_18138.JPEG
vgg,7,1231,NaN,bird,bottle,c01,8911_con_dnn_c01_bottle_10_n04557648_2084.JPEG
vgg,7,1232,NaN,boat,bottle,c01,8912_con_dnn_c01_bottle_10_n04579145_2425.JPEG
vgg,7,1233,NaN,bird,bottle,c01,8913_con_dnn_c01_bottle_10_n04560804_16346.JPEG
vgg,7,1234,NaN,clock,bottle,c01,8914_con_dnn_c01_bottle_10_n04560804_1412.JPEG
vgg,7,1235,NaN,boat,bottle,c01,8915_con_dnn_c01_bottle_10_n04579145_6014.JPEG
vgg,7,1236,NaN,boat,bottle,c01,8916_con_dnn_c01_bottle_10_n04591713_5977.JPEG
vgg,7,1237,NaN,clock,bottle,c01,8917_con_dnn_c01_bottle_10_n04557648_5790.JPEG
vgg,7,1238,NaN,boat,bottle,c01,8918_con_dnn_c01_bottle_10_n03983396_1746.JPEG
vgg,7,1239,NaN,bird,bottle,c01,8919_con_dnn_c01_bottle_10_n03937543_1168.JPEG
vgg,7,1240,NaN,bird,bottle,c01,8920_con_dnn_c01_bottle_10_n04557648_10391.JPEG
vgg,7,1241,NaN,bird,truck,c01,8921_con_dnn_c01_truck_10_n04467665_3576.JPEG
vgg,7,1242,NaN,bird,truck,c01,8922_con_dnn_c01_truck_10_n03796401_5515.JPEG
vgg,7,1243,NaN,boat,truck,c01,8923_con_dnn_c01_truck_10_n04467665_9941.JPEG
vgg,7,1244,NaN,knife,truck,c01,8924_con_dnn_c01_truck_10_n04467665_59237.JPEG
vgg,7,1245,NaN,bird,truck,c01,8925_con_dnn_c01_truck_10_n04467665_43568.JPEG
vgg,7,1246,NaN,airplane,truck,c01,8926_con_dnn_c01_truck_10_n03417042_27015.JPEG
vgg,7,1247,NaN,bird,truck,c01,8927_con_dnn_c01_truck_10_n03417042_5458.JPEG
vgg,7,1248,NaN,airplane,truck,c01,8928_con_dnn_c01_truck_10_n03796401_4868.JPEG
vgg,7,1249,NaN,airplane,truck,c01,8929_con_dnn_c01_truck_10_n03796401_12028.JPEG
vgg,7,1250,NaN,airplane,truck,c01,8930_con_dnn_c01_truck_10_n03796401_5343.JPEG
vgg,7,1251,NaN,bird,car,c01,8931_con_dnn_c01_car_10_n02814533_91806.JPEG
vgg,7,1252,NaN,boat,car,c01,8932_con_dnn_c01_car_10_n02814533_14837.JPEG
vgg,7,1253,NaN,bird,car,c01,8933_con_dnn_c01_car_10_n03100240_9908.JPEG
vgg,7,1254,NaN,bird,car,c01,8934_con_dnn_c01_car_10_n02814533_27484.JPEG
vgg,7,1255,NaN,airplane,car,c01,8935_con_dnn_c01_car_10_n02814533_75173.JPEG
vgg,7,1256,NaN,airplane,car,c01,8936_con_dnn_c01_car_10_n02814533_9726.JPEG
vgg,7,1257,NaN,bird,car,c01,8937_con_dnn_c01_car_10_n03100240_1438.JPEG
vgg,7,1258,NaN,boat,car,c01,8938_con_dnn_c01_car_10_n02814533_28756.JPEG
vgg,7,1259,NaN,bird,car,c01,8939_con_dnn_c01_car_10_n03100240_6259.JPEG
vgg,7,1260,NaN,bird,car,c01,8940_con_dnn_c01_car_10_n02814533_8121.JPEG
vgg,7,1261,NaN,bird,bird,c01,8941_con_dnn_c01_bird_10_n01818515_14893.JPEG
vgg,7,1262,NaN,airplane,bird,c01,8942_con_dnn_c01_bird_10_n01795545_494.JPEG
vgg,7,1263,NaN,boat,bird,c01,8943_con_dnn_c01_bird_10_n02013706_4129.JPEG
vgg,7,1264,NaN,airplane,bird,c01,8944_con_dnn_c01_bird_10_n02006656_11402.JPEG
vgg,7,1265,NaN,bird,bird,c01,8945_con_dnn_c01_bird_10_n02002724_5952.JPEG
vgg,7,1266,NaN,clock,bird,c01,8946_con_dnn_c01_bird_10_n01855672_8478.JPEG
vgg,7,1267,NaN,airplane,bird,c01,8947_con_dnn_c01_bird_10_n01798484_9193.JPEG
vgg,7,1268,NaN,boat,bird,c01,8948_con_dnn_c01_bird_10_n02051845_11939.JPEG
vgg,7,1269,NaN,bird,bird,c01,8949_con_dnn_c01_bird_10_n01534433_6991.JPEG
vgg,7,1270,NaN,boat,bird,c01,8950_con_dnn_c01_bird_10_n02051845_4792.JPEG
vgg,7,1271,NaN,boat,dog,c01,8951_con_dnn_c01_dog_10_n02113624_9199.JPEG
vgg,7,1272,NaN,boat,dog,c01,8952_con_dnn_c01_dog_10_n02109525_22431.JPEG
vgg,7,1273,NaN,clock,dog,c01,8953_con_dnn_c01_dog_10_n02113799_419.JPEG
vgg,7,1274,NaN,boat,dog,c01,8954_con_dnn_c01_dog_10_n02105855_9282.JPEG
vgg,7,1275,NaN,bird,dog,c01,8955_con_dnn_c01_dog_10_n02100583_10617.JPEG
vgg,7,1276,NaN,bird,dog,c01,8956_con_dnn_c01_dog_10_n02086079_1843.JPEG
vgg,7,1277,NaN,boat,dog,c01,8957_con_dnn_c01_dog_10_n02100735_6242.JPEG
vgg,7,1278,NaN,boat,dog,c01,8958_con_dnn_c01_dog_10_n02093859_2798.JPEG
vgg,7,1279,NaN,bird,dog,c01,8959_con_dnn_c01_dog_10_n02087394_11690.JPEG
vgg,7,1280,NaN,airplane,dog,c01,8960_con_dnn_c01_dog_10_n02106030_5547.JPEG
