subj,session,trial,rt,object_response,category,condition,imagename
alexnet,1,1,NaN,knife,knife,c100,0001_con_dnn_c100_knife_10_n03041632_43625.JPEG
alexnet,1,2,NaN,knife,knife,c100,0002_con_dnn_c100_knife_10_n03041632_81943.JPEG
alexnet,1,3,NaN,clock,knife,c100,0003_con_dnn_c100_knife_10_n03041632_12242.JPEG
alexnet,1,4,NaN,chair,knife,c100,0004_con_dnn_c100_knife_10_n03041632_24384.JPEG
alexnet,1,5,NaN,knife,knife,c100,0005_con_dnn_c100_knife_10_n03041632_24181.JPEG
alexnet,1,6,NaN,knife,knife,c100,0006_con_dnn_c100_knife_10_n03041632_11773.JPEG
alexnet,1,7,NaN,clock,knife,c100,0007_con_dnn_c100_knife_10_n03041632_20217.JPEG
alexnet,1,8,NaN,bottle,knife,c100,0008_con_dnn_c100_knife_10_n03041632_3326.JPEG
alexnet,1,9,NaN,knife,knife,c100,0009_con_dnn_c100_knife_10_n03041632_5302.JPEG
alexnet,1,10,NaN,knife,knife,c100,0010_con_dnn_c100_knife_10_n03041632_17820.JPEG
alexnet,1,11,NaN,keyboard,keyboard,c100,0011_con_dnn_c100_keyboard_10_n03085013_20712.JPEG
alexnet,1,12,NaN,keyboard,keyboard,c100,0012_con_dnn_c100_keyboard_10_n04505470_5923.JPEG
alexnet,1,13,NaN,keyboard,keyboard,c100,0013_con_dnn_c100_keyboard_10_n03085013_15125.JPEG
alexnet,1,14,NaN,keyboard,keyboard,c100,0014_con_dnn_c100_keyboard_10_n03085013_32791.JPEG
alexnet,1,15,NaN,keyboard,keyboard,c100,0015_con_dnn_c100_keyboard_10_n03085013_24363.JPEG
alexnet,1,16,NaN,keyboard,keyboard,c100,0016_con_dnn_c100_keyboard_10_n03085013_3980.JPEG
alexnet,1,17,NaN,keyboard,keyboard,c100,0017_con_dnn_c100_keyboard_10_n03085013_24124.JPEG
alexnet,1,18,NaN,keyboard,keyboard,c100,0018_con_dnn_c100_keyboard_10_n03085013_23398.JPEG
alexnet,1,19,NaN,keyboard,keyboard,c100,0019_con_dnn_c100_keyboard_10_n03085013_23845.JPEG
alexnet,1,20,NaN,keyboard,keyboard,c100,0020_con_dnn_c100_keyboard_10_n03085013_18785.JPEG
alexnet,1,21,NaN,elephant,elephant,c100,0021_con_dnn_c100_elephant_10_n02504458_410.JPEG
alexnet,1,22,NaN,elephant,elephant,c100,0022_con_dnn_c100_elephant_10_n02504458_494.JPEG
alexnet,1,23,NaN,elephant,elephant,c100,0023_con_dnn_c100_elephant_10_n02504013_281.JPEG
alexnet,1,24,NaN,elephant,elephant,c100,0024_con_dnn_c100_elephant_10_n02504458_6930.JPEG
alexnet,1,25,NaN,elephant,elephant,c100,0025_con_dnn_c100_elephant_10_n02504013_2350.JPEG
alexnet,1,26,NaN,elephant,elephant,c100,0026_con_dnn_c100_elephant_10_n02504458_6499.JPEG
alexnet,1,27,NaN,elephant,elephant,c100,0027_con_dnn_c100_elephant_10_n02504458_6029.JPEG
alexnet,1,28,NaN,elephant,elephant,c100,0028_con_dnn_c100_elephant_10_n02504458_4811.JPEG
alexnet,1,29,NaN,elephant,elephant,c100,0029_con_dnn_c100_elephant_10_n02504013_6139.JPEG
alexnet,1,30,NaN,elephant,elephant,c100,0030_con_dnn_c100_elephant_10_n02504013_10948.JPEG
alexnet,1,31,NaN,bicycle,bicycle,c100,0031_con_dnn_c100_bicycle_10_n03792782_9709.JPEG
alexnet,1,32,NaN,bicycle,bicycle,c100,0032_con_dnn_c100_bicycle_10_n02835271_8512.JPEG
alexnet,1,33,NaN,bicycle,bicycle,c100,0033_con_dnn_c100_bicycle_10_n03792782_7438.JPEG
alexnet,1,34,NaN,bicycle,bicycle,c100,0034_con_dnn_c100_bicycle_10_n03792782_48605.JPEG
alexnet,1,35,NaN,dog,bicycle,c100,0035_con_dnn_c100_bicycle_10_n03792782_2358.JPEG
alexnet,1,36,NaN,bicycle,bicycle,c100,0036_con_dnn_c100_bicycle_10_n03792782_30186.JPEG
alexnet,1,37,NaN,bicycle,bicycle,c100,0037_con_dnn_c100_bicycle_10_n02835271_6717.JPEG
alexnet,1,38,NaN,bicycle,bicycle,c100,0038_con_dnn_c100_bicycle_10_n02835271_2163.JPEG
alexnet,1,39,NaN,bicycle,bicycle,c100,0039_con_dnn_c100_bicycle_10_n03792782_15248.JPEG
alexnet,1,40,NaN,bicycle,bicycle,c100,0040_con_dnn_c100_bicycle_10_n03792782_45780.JPEG
alexnet,1,41,NaN,airplane,airplane,c100,0041_con_dnn_c100_airplane_10_n02690373_2026.JPEG
alexnet,1,42,NaN,airplane,airplane,c100,0042_con_dnn_c100_airplane_10_n02690373_1512.JPEG
alexnet,1,43,NaN,airplane,airplane,c100,0043_con_dnn_c100_airplane_10_n02690373_5430.JPEG
alexnet,1,44,NaN,airplane,airplane,c100,0044_con_dnn_c100_airplane_10_n02690373_4893.JPEG
alexnet,1,45,NaN,airplane,airplane,c100,0045_con_dnn_c100_airplane_10_n02690373_3035.JPEG
alexnet,1,46,NaN,airplane,airplane,c100,0046_con_dnn_c100_airplane_10_n02690373_290.JPEG
alexnet,1,47,NaN,airplane,airplane,c100,0047_con_dnn_c100_airplane_10_n02690373_3326.JPEG
alexnet,1,48,NaN,airplane,airplane,c100,0048_con_dnn_c100_airplane_10_n02690373_4565.JPEG
alexnet,1,49,NaN,boat,airplane,c100,0049_con_dnn_c100_airplane_10_n02690373_2750.JPEG
alexnet,1,50,NaN,airplane,airplane,c100,0050_con_dnn_c100_airplane_10_n02690373_891.JPEG
alexnet,1,51,NaN,clock,clock,c100,0051_con_dnn_c100_clock_10_n04548280_23523.JPEG
alexnet,1,52,NaN,clock,clock,c100,0052_con_dnn_c100_clock_10_n04548280_4557.JPEG
alexnet,1,53,NaN,clock,clock,c100,0053_con_dnn_c100_clock_10_n04548280_11763.JPEG
alexnet,1,54,NaN,clock,clock,c100,0054_con_dnn_c100_clock_10_n02708093_699.JPEG
alexnet,1,55,NaN,clock,clock,c100,0055_con_dnn_c100_clock_10_n04548280_4.JPEG
alexnet,1,56,NaN,clock,clock,c100,0056_con_dnn_c100_clock_10_n03196217_10305.JPEG
alexnet,1,57,NaN,clock,clock,c100,0057_con_dnn_c100_clock_10_n04548280_3164.JPEG
alexnet,1,58,NaN,clock,clock,c100,0058_con_dnn_c100_clock_10_n03196217_711.JPEG
alexnet,1,59,NaN,clock,clock,c100,0059_con_dnn_c100_clock_10_n04548280_6792.JPEG
alexnet,1,60,NaN,clock,clock,c100,0060_con_dnn_c100_clock_10_n03196217_3257.JPEG
alexnet,1,61,NaN,oven,oven,c100,0061_con_dnn_c100_oven_10_n04111531_10093.JPEG
alexnet,1,62,NaN,oven,oven,c100,0062_con_dnn_c100_oven_10_n04111531_7298.JPEG
alexnet,1,63,NaN,oven,oven,c100,0063_con_dnn_c100_oven_10_n04111531_10011.JPEG
alexnet,1,64,NaN,oven,oven,c100,0064_con_dnn_c100_oven_10_n04111531_2803.JPEG
alexnet,1,65,NaN,oven,oven,c100,0065_con_dnn_c100_oven_10_n04111531_4234.JPEG
alexnet,1,66,NaN,oven,oven,c100,0066_con_dnn_c100_oven_10_n04111531_1945.JPEG
alexnet,1,67,NaN,oven,oven,c100,0067_con_dnn_c100_oven_10_n04111531_11405.JPEG
alexnet,1,68,NaN,chair,oven,c100,0068_con_dnn_c100_oven_10_n04111531_1873.JPEG
alexnet,1,69,NaN,chair,oven,c100,0069_con_dnn_c100_oven_10_n04111531_21248.JPEG
alexnet,1,70,NaN,oven,oven,c100,0070_con_dnn_c100_oven_10_n04111531_22263.JPEG
alexnet,1,71,NaN,chair,chair,c100,0071_con_dnn_c100_chair_10_n02791124_7904.JPEG
alexnet,1,72,NaN,chair,chair,c100,0072_con_dnn_c100_chair_10_n04429376_5674.JPEG
alexnet,1,73,NaN,chair,chair,c100,0073_con_dnn_c100_chair_10_n02791124_755.JPEG
alexnet,1,74,NaN,chair,chair,c100,0074_con_dnn_c100_chair_10_n04429376_14072.JPEG
alexnet,1,75,NaN,chair,chair,c100,0075_con_dnn_c100_chair_10_n02791124_323.JPEG
alexnet,1,76,NaN,chair,chair,c100,0076_con_dnn_c100_chair_10_n03376595_3462.JPEG
alexnet,1,77,NaN,chair,chair,c100,0077_con_dnn_c100_chair_10_n02791124_6786.JPEG
alexnet,1,78,NaN,chair,chair,c100,0078_con_dnn_c100_chair_10_n04099969_4049.JPEG
alexnet,1,79,NaN,chair,chair,c100,0079_con_dnn_c100_chair_10_n02791124_1256.JPEG
alexnet,1,80,NaN,chair,chair,c100,0080_con_dnn_c100_chair_10_n04099969_2502.JPEG
alexnet,1,81,NaN,bear,bear,c100,0081_con_dnn_c100_bear_10_n02133161_4894.JPEG
alexnet,1,82,NaN,bear,bear,c100,0082_con_dnn_c100_bear_10_n02134084_26836.JPEG
alexnet,1,83,NaN,bear,bear,c100,0083_con_dnn_c100_bear_10_n02134418_2774.JPEG
alexnet,1,84,NaN,bear,bear,c100,0084_con_dnn_c100_bear_10_n02134084_7217.JPEG
alexnet,1,85,NaN,chair,bear,c100,0085_con_dnn_c100_bear_10_n02134084_6821.JPEG
alexnet,1,86,NaN,bear,bear,c100,0086_con_dnn_c100_bear_10_n02133161_15954.JPEG
alexnet,1,87,NaN,bear,bear,c100,0087_con_dnn_c100_bear_10_n02134084_4018.JPEG
alexnet,1,88,NaN,bear,bear,c100,0088_con_dnn_c100_bear_10_n02134418_240.JPEG
alexnet,1,89,NaN,bear,bear,c100,0089_con_dnn_c100_bear_10_n02134084_8105.JPEG
alexnet,1,90,NaN,bear,bear,c100,0090_con_dnn_c100_bear_10_n02132136_5778.JPEG
alexnet,1,91,NaN,boat,boat,c100,0091_con_dnn_c100_boat_10_n03662601_12960.JPEG
alexnet,1,92,NaN,boat,boat,c100,0092_con_dnn_c100_boat_10_n03344393_7011.JPEG
alexnet,1,93,NaN,boat,boat,c100,0093_con_dnn_c100_boat_10_n03662601_13189.JPEG
alexnet,1,94,NaN,bicycle,boat,c100,0094_con_dnn_c100_boat_10_n04612504_6552.JPEG
alexnet,1,95,NaN,boat,boat,c100,0095_con_dnn_c100_boat_10_n02951358_5215.JPEG
alexnet,1,96,NaN,dog,boat,c100,0096_con_dnn_c100_boat_10_n02951358_7830.JPEG
alexnet,1,97,NaN,boat,boat,c100,0097_con_dnn_c100_boat_10_n04273569_3897.JPEG
alexnet,1,98,NaN,boat,boat,c100,0098_con_dnn_c100_boat_10_n04273569_12991.JPEG
alexnet,1,99,NaN,boat,boat,c100,0099_con_dnn_c100_boat_10_n03662601_2686.JPEG
alexnet,1,100,NaN,boat,boat,c100,0100_con_dnn_c100_boat_10_n02951358_34314.JPEG
alexnet,1,101,NaN,cat,cat,c100,0101_con_dnn_c100_cat_10_n02123394_6619.JPEG
alexnet,1,102,NaN,dog,cat,c100,0102_con_dnn_c100_cat_10_n02124075_11970.JPEG
alexnet,1,103,NaN,cat,cat,c100,0103_con_dnn_c100_cat_10_n02123394_506.JPEG
alexnet,1,104,NaN,cat,cat,c100,0104_con_dnn_c100_cat_10_n02124075_7599.JPEG
alexnet,1,105,NaN,cat,cat,c100,0105_con_dnn_c100_cat_10_n02123597_1192.JPEG
alexnet,1,106,NaN,cat,cat,c100,0106_con_dnn_c100_cat_10_n02123159_4924.JPEG
alexnet,1,107,NaN,cat,cat,c100,0107_con_dnn_c100_cat_10_n02124075_2674.JPEG
alexnet,1,108,NaN,cat,cat,c100,0108_con_dnn_c100_cat_10_n02123394_2034.JPEG
alexnet,1,109,NaN,dog,cat,c100,0109_con_dnn_c100_cat_10_n02123045_7120.JPEG
alexnet,1,110,NaN,cat,cat,c100,0110_con_dnn_c100_cat_10_n02125311_8314.JPEG
alexnet,1,111,NaN,bottle,bottle,c100,0111_con_dnn_c100_bottle_10_n04557648_4110.JPEG
alexnet,1,112,NaN,bottle,bottle,c100,0112_con_dnn_c100_bottle_10_n03937543_9065.JPEG
alexnet,1,113,NaN,clock,bottle,c100,0113_con_dnn_c100_bottle_10_n03937543_4062.JPEG
alexnet,1,114,NaN,bottle,bottle,c100,0114_con_dnn_c100_bottle_10_n03983396_5363.JPEG
alexnet,1,115,NaN,bottle,bottle,c100,0115_con_dnn_c100_bottle_10_n03937543_6162.JPEG
alexnet,1,116,NaN,bottle,bottle,c100,0116_con_dnn_c100_bottle_10_n03983396_5661.JPEG
alexnet,1,117,NaN,bottle,bottle,c100,0117_con_dnn_c100_bottle_10_n04591713_4564.JPEG
alexnet,1,118,NaN,bottle,bottle,c100,0118_con_dnn_c100_bottle_10_n04557648_11977.JPEG
alexnet,1,119,NaN,bottle,bottle,c100,0119_con_dnn_c100_bottle_10_n04560804_30126.JPEG
alexnet,1,120,NaN,chair,bottle,c100,0120_con_dnn_c100_bottle_10_n03983396_16224.JPEG
alexnet,1,121,NaN,truck,truck,c100,0121_con_dnn_c100_truck_10_n03417042_4665.JPEG
alexnet,1,122,NaN,truck,truck,c100,0122_con_dnn_c100_truck_10_n03417042_6539.JPEG
alexnet,1,123,NaN,truck,truck,c100,0123_con_dnn_c100_truck_10_n04467665_9052.JPEG
alexnet,1,124,NaN,truck,truck,c100,0124_con_dnn_c100_truck_10_n04467665_19232.JPEG
alexnet,1,125,NaN,truck,truck,c100,0125_con_dnn_c100_truck_10_n03796401_813.JPEG
alexnet,1,126,NaN,truck,truck,c100,0126_con_dnn_c100_truck_10_n03417042_21270.JPEG
alexnet,1,127,NaN,truck,truck,c100,0127_con_dnn_c100_truck_10_n03417042_2822.JPEG
alexnet,1,128,NaN,truck,truck,c100,0128_con_dnn_c100_truck_10_n03417042_6809.JPEG
alexnet,1,129,NaN,truck,truck,c100,0129_con_dnn_c100_truck_10_n04467665_13328.JPEG
alexnet,1,130,NaN,truck,truck,c100,0130_con_dnn_c100_truck_10_n03796401_9838.JPEG
alexnet,1,131,NaN,car,car,c100,0131_con_dnn_c100_car_10_n04285008_3964.JPEG
alexnet,1,132,NaN,car,car,c100,0132_con_dnn_c100_car_10_n03100240_8702.JPEG
alexnet,1,133,NaN,car,car,c100,0133_con_dnn_c100_car_10_n02814533_25687.JPEG
alexnet,1,134,NaN,car,car,c100,0134_con_dnn_c100_car_10_n04285008_6239.JPEG
alexnet,1,135,NaN,car,car,c100,0135_con_dnn_c100_car_10_n04285008_3884.JPEG
alexnet,1,136,NaN,car,car,c100,0136_con_dnn_c100_car_10_n02814533_31872.JPEG
alexnet,1,137,NaN,car,car,c100,0137_con_dnn_c100_car_10_n04285008_17075.JPEG
alexnet,1,138,NaN,truck,car,c100,0138_con_dnn_c100_car_10_n02814533_38963.JPEG
alexnet,1,139,NaN,truck,car,c100,0139_con_dnn_c100_car_10_n02814533_5529.JPEG
alexnet,1,140,NaN,car,car,c100,0140_con_dnn_c100_car_10_n02814533_23456.JPEG
alexnet,1,141,NaN,bird,bird,c100,0141_con_dnn_c100_bird_10_n01798484_9133.JPEG
alexnet,1,142,NaN,dog,bird,c100,0142_con_dnn_c100_bird_10_n01532829_671.JPEG
alexnet,1,143,NaN,bird,bird,c100,0143_con_dnn_c100_bird_10_n01622779_3028.JPEG
alexnet,1,144,NaN,chair,bird,c100,0144_con_dnn_c100_bird_10_n02033041_7756.JPEG
alexnet,1,145,NaN,bird,bird,c100,0145_con_dnn_c100_bird_10_n02007558_14659.JPEG
alexnet,1,146,NaN,bird,bird,c100,0146_con_dnn_c100_bird_10_n01798484_7586.JPEG
alexnet,1,147,NaN,bird,bird,c100,0147_con_dnn_c100_bird_10_n01558993_13196.JPEG
alexnet,1,148,NaN,dog,bird,c100,0148_con_dnn_c100_bird_10_n01537544_24880.JPEG
alexnet,1,149,NaN,bird,bird,c100,0149_con_dnn_c100_bird_10_n01855032_8318.JPEG
alexnet,1,150,NaN,bird,bird,c100,0150_con_dnn_c100_bird_10_n01582220_4230.JPEG
alexnet,1,151,NaN,dog,dog,c100,0151_con_dnn_c100_dog_10_n02105855_12781.JPEG
alexnet,1,152,NaN,dog,dog,c100,0152_con_dnn_c100_dog_10_n02100236_4084.JPEG
alexnet,1,153,NaN,dog,dog,c100,0153_con_dnn_c100_dog_10_n02107574_1037.JPEG
alexnet,1,154,NaN,dog,dog,c100,0154_con_dnn_c100_dog_10_n02100877_427.JPEG
alexnet,1,155,NaN,dog,dog,c100,0155_con_dnn_c100_dog_10_n02094258_5746.JPEG
alexnet,1,156,NaN,dog,dog,c100,0156_con_dnn_c100_dog_10_n02094433_5384.JPEG
alexnet,1,157,NaN,dog,dog,c100,0157_con_dnn_c100_dog_10_n02093647_437.JPEG
alexnet,1,158,NaN,dog,dog,c100,0158_con_dnn_c100_dog_10_n02098286_5621.JPEG
alexnet,1,159,NaN,dog,dog,c100,0159_con_dnn_c100_dog_10_n02112350_8707.JPEG
alexnet,1,160,NaN,dog,dog,c100,0160_con_dnn_c100_dog_10_n02086240_1683.JPEG
alexnet,1,161,NaN,knife,knife,c50,0161_con_dnn_c50_knife_10_n03041632_15174.JPEG
alexnet,1,162,NaN,knife,knife,c50,0162_con_dnn_c50_knife_10_n03041632_76163.JPEG
alexnet,1,163,NaN,chair,knife,c50,0163_con_dnn_c50_knife_10_n03041632_24561.JPEG
alexnet,1,164,NaN,knife,knife,c50,0164_con_dnn_c50_knife_10_n03041632_47703.JPEG
alexnet,1,165,NaN,dog,knife,c50,0165_con_dnn_c50_knife_10_n03041632_13478.JPEG
alexnet,1,166,NaN,chair,knife,c50,0166_con_dnn_c50_knife_10_n03041632_1556.JPEG
alexnet,1,167,NaN,keyboard,knife,c50,0167_con_dnn_c50_knife_10_n03041632_25512.JPEG
alexnet,1,168,NaN,keyboard,knife,c50,0168_con_dnn_c50_knife_10_n03041632_28009.JPEG
alexnet,1,169,NaN,clock,knife,c50,0169_con_dnn_c50_knife_10_n03041632_29680.JPEG
alexnet,1,170,NaN,knife,knife,c50,0170_con_dnn_c50_knife_10_n03041632_84048.JPEG
alexnet,1,171,NaN,keyboard,keyboard,c50,0171_con_dnn_c50_keyboard_10_n04505470_3566.JPEG
alexnet,1,172,NaN,keyboard,keyboard,c50,0172_con_dnn_c50_keyboard_10_n03085013_1695.JPEG
alexnet,1,173,NaN,keyboard,keyboard,c50,0173_con_dnn_c50_keyboard_10_n04505470_2421.JPEG
alexnet,1,174,NaN,keyboard,keyboard,c50,0174_con_dnn_c50_keyboard_10_n03085013_25181.JPEG
alexnet,1,175,NaN,keyboard,keyboard,c50,0175_con_dnn_c50_keyboard_10_n04505470_1043.JPEG
alexnet,1,176,NaN,bottle,keyboard,c50,0176_con_dnn_c50_keyboard_10_n04505470_4569.JPEG
alexnet,1,177,NaN,keyboard,keyboard,c50,0177_con_dnn_c50_keyboard_10_n03085013_24156.JPEG
alexnet,1,178,NaN,keyboard,keyboard,c50,0178_con_dnn_c50_keyboard_10_n03085013_20843.JPEG
alexnet,1,179,NaN,keyboard,keyboard,c50,0179_con_dnn_c50_keyboard_10_n04505470_4922.JPEG
alexnet,1,180,NaN,keyboard,keyboard,c50,0180_con_dnn_c50_keyboard_10_n03085013_20186.JPEG
alexnet,1,181,NaN,elephant,elephant,c50,0181_con_dnn_c50_elephant_10_n02504458_3928.JPEG
alexnet,1,182,NaN,elephant,elephant,c50,0182_con_dnn_c50_elephant_10_n02504458_4022.JPEG
alexnet,1,183,NaN,bear,elephant,c50,0183_con_dnn_c50_elephant_10_n02504458_4137.JPEG
alexnet,1,184,NaN,elephant,elephant,c50,0184_con_dnn_c50_elephant_10_n02504458_1302.JPEG
alexnet,1,185,NaN,elephant,elephant,c50,0185_con_dnn_c50_elephant_10_n02504458_11216.JPEG
alexnet,1,186,NaN,elephant,elephant,c50,0186_con_dnn_c50_elephant_10_n02504458_2939.JPEG
alexnet,1,187,NaN,elephant,elephant,c50,0187_con_dnn_c50_elephant_10_n02504458_3329.JPEG
alexnet,1,188,NaN,elephant,elephant,c50,0188_con_dnn_c50_elephant_10_n02504458_4884.JPEG
alexnet,1,189,NaN,elephant,elephant,c50,0189_con_dnn_c50_elephant_10_n02504013_1244.JPEG
alexnet,1,190,NaN,elephant,elephant,c50,0190_con_dnn_c50_elephant_10_n02504458_5288.JPEG
alexnet,1,191,NaN,bottle,bicycle,c50,0191_con_dnn_c50_bicycle_10_n02835271_19875.JPEG
alexnet,1,192,NaN,bicycle,bicycle,c50,0192_con_dnn_c50_bicycle_10_n02835271_8621.JPEG
alexnet,1,193,NaN,bicycle,bicycle,c50,0193_con_dnn_c50_bicycle_10_n02835271_9566.JPEG
alexnet,1,194,NaN,dog,bicycle,c50,0194_con_dnn_c50_bicycle_10_n03792782_5317.JPEG
alexnet,1,195,NaN,bicycle,bicycle,c50,0195_con_dnn_c50_bicycle_10_n03792782_3513.JPEG
alexnet,1,196,NaN,bicycle,bicycle,c50,0196_con_dnn_c50_bicycle_10_n02835271_3308.JPEG
alexnet,1,197,NaN,bicycle,bicycle,c50,0197_con_dnn_c50_bicycle_10_n03792782_20065.JPEG
alexnet,1,198,NaN,bicycle,bicycle,c50,0198_con_dnn_c50_bicycle_10_n02835271_13439.JPEG
alexnet,1,199,NaN,bicycle,bicycle,c50,0199_con_dnn_c50_bicycle_10_n03792782_6048.JPEG
alexnet,1,200,NaN,dog,bicycle,c50,0200_con_dnn_c50_bicycle_10_n03792782_2263.JPEG
alexnet,1,201,NaN,airplane,airplane,c50,0201_con_dnn_c50_airplane_10_n02690373_3468.JPEG
alexnet,1,202,NaN,airplane,airplane,c50,0202_con_dnn_c50_airplane_10_n02690373_5778.JPEG
alexnet,1,203,NaN,airplane,airplane,c50,0203_con_dnn_c50_airplane_10_n02690373_10506.JPEG
alexnet,1,204,NaN,airplane,airplane,c50,0204_con_dnn_c50_airplane_10_n02690373_4409.JPEG
alexnet,1,205,NaN,airplane,airplane,c50,0205_con_dnn_c50_airplane_10_n02690373_3047.JPEG
alexnet,1,206,NaN,airplane,airplane,c50,0206_con_dnn_c50_airplane_10_n02690373_12813.JPEG
alexnet,1,207,NaN,airplane,airplane,c50,0207_con_dnn_c50_airplane_10_n02690373_10462.JPEG
alexnet,1,208,NaN,airplane,airplane,c50,0208_con_dnn_c50_airplane_10_n02690373_2232.JPEG
alexnet,1,209,NaN,airplane,airplane,c50,0209_con_dnn_c50_airplane_10_n02690373_19666.JPEG
alexnet,1,210,NaN,airplane,airplane,c50,0210_con_dnn_c50_airplane_10_n02690373_4201.JPEG
alexnet,1,211,NaN,clock,clock,c50,0211_con_dnn_c50_clock_10_n04548280_3352.JPEG
alexnet,1,212,NaN,clock,clock,c50,0212_con_dnn_c50_clock_10_n03196217_12566.JPEG
alexnet,1,213,NaN,clock,clock,c50,0213_con_dnn_c50_clock_10_n03196217_3518.JPEG
alexnet,1,214,NaN,clock,clock,c50,0214_con_dnn_c50_clock_10_n03196217_3352.JPEG
alexnet,1,215,NaN,clock,clock,c50,0215_con_dnn_c50_clock_10_n02708093_6696.JPEG
alexnet,1,216,NaN,bottle,clock,c50,0216_con_dnn_c50_clock_10_n04548280_3351.JPEG
alexnet,1,217,NaN,clock,clock,c50,0217_con_dnn_c50_clock_10_n03196217_8368.JPEG
alexnet,1,218,NaN,clock,clock,c50,0218_con_dnn_c50_clock_10_n04548280_8225.JPEG
alexnet,1,219,NaN,clock,clock,c50,0219_con_dnn_c50_clock_10_n04548280_10459.JPEG
alexnet,1,220,NaN,clock,clock,c50,0220_con_dnn_c50_clock_10_n03196217_847.JPEG
alexnet,1,221,NaN,bottle,oven,c50,0221_con_dnn_c50_oven_10_n04111531_5015.JPEG
alexnet,1,222,NaN,oven,oven,c50,0222_con_dnn_c50_oven_10_n04111531_1229.JPEG
alexnet,1,223,NaN,clock,oven,c50,0223_con_dnn_c50_oven_10_n04111531_13018.JPEG
alexnet,1,224,NaN,bottle,oven,c50,0224_con_dnn_c50_oven_10_n04111531_8117.JPEG
alexnet,1,225,NaN,bottle,oven,c50,0225_con_dnn_c50_oven_10_n04111531_2054.JPEG
alexnet,1,226,NaN,oven,oven,c50,0226_con_dnn_c50_oven_10_n04111531_12103.JPEG
alexnet,1,227,NaN,elephant,oven,c50,0227_con_dnn_c50_oven_10_n04111531_13486.JPEG
alexnet,1,228,NaN,oven,oven,c50,0228_con_dnn_c50_oven_10_n04111531_2643.JPEG
alexnet,1,229,NaN,oven,oven,c50,0229_con_dnn_c50_oven_10_n04111531_23215.JPEG
alexnet,1,230,NaN,truck,oven,c50,0230_con_dnn_c50_oven_10_n04111531_2350.JPEG
alexnet,1,231,NaN,chair,chair,c50,0231_con_dnn_c50_chair_10_n04099969_2121.JPEG
alexnet,1,232,NaN,chair,chair,c50,0232_con_dnn_c50_chair_10_n03376595_8953.JPEG
alexnet,1,233,NaN,chair,chair,c50,0233_con_dnn_c50_chair_10_n03376595_6445.JPEG
alexnet,1,234,NaN,chair,chair,c50,0234_con_dnn_c50_chair_10_n02791124_6505.JPEG
alexnet,1,235,NaN,chair,chair,c50,0235_con_dnn_c50_chair_10_n03376595_12960.JPEG
alexnet,1,236,NaN,chair,chair,c50,0236_con_dnn_c50_chair_10_n04099969_14345.JPEG
alexnet,1,237,NaN,chair,chair,c50,0237_con_dnn_c50_chair_10_n02791124_3048.JPEG
alexnet,1,238,NaN,dog,chair,c50,0238_con_dnn_c50_chair_10_n04429376_37106.JPEG
alexnet,1,239,NaN,cat,chair,c50,0239_con_dnn_c50_chair_10_n04429376_5135.JPEG
alexnet,1,240,NaN,chair,chair,c50,0240_con_dnn_c50_chair_10_n04099969_396.JPEG
alexnet,1,241,NaN,bear,bear,c50,0241_con_dnn_c50_bear_10_n02134418_455.JPEG
alexnet,1,242,NaN,bear,bear,c50,0242_con_dnn_c50_bear_10_n02132136_21208.JPEG
alexnet,1,243,NaN,bear,bear,c50,0243_con_dnn_c50_bear_10_n02132136_184.JPEG
alexnet,1,244,NaN,bear,bear,c50,0244_con_dnn_c50_bear_10_n02134418_603.JPEG
alexnet,1,245,NaN,bear,bear,c50,0245_con_dnn_c50_bear_10_n02132136_1889.JPEG
alexnet,1,246,NaN,bear,bear,c50,0246_con_dnn_c50_bear_10_n02134418_5909.JPEG
alexnet,1,247,NaN,bear,bear,c50,0247_con_dnn_c50_bear_10_n02133161_23787.JPEG
alexnet,1,248,NaN,bear,bear,c50,0248_con_dnn_c50_bear_10_n02132136_10978.JPEG
alexnet,1,249,NaN,bear,bear,c50,0249_con_dnn_c50_bear_10_n02134084_15157.JPEG
alexnet,1,250,NaN,bear,bear,c50,0250_con_dnn_c50_bear_10_n02133161_12921.JPEG
alexnet,1,251,NaN,airplane,boat,c50,0251_con_dnn_c50_boat_10_n03662601_1919.JPEG
alexnet,1,252,NaN,boat,boat,c50,0252_con_dnn_c50_boat_10_n03344393_4447.JPEG
alexnet,1,253,NaN,boat,boat,c50,0253_con_dnn_c50_boat_10_n03662601_6037.JPEG
alexnet,1,254,NaN,boat,boat,c50,0254_con_dnn_c50_boat_10_n02951358_460.JPEG
alexnet,1,255,NaN,boat,boat,c50,0255_con_dnn_c50_boat_10_n03662601_18718.JPEG
alexnet,1,256,NaN,boat,boat,c50,0256_con_dnn_c50_boat_10_n04273569_11964.JPEG
alexnet,1,257,NaN,boat,boat,c50,0257_con_dnn_c50_boat_10_n04612504_24113.JPEG
alexnet,1,258,NaN,boat,boat,c50,0258_con_dnn_c50_boat_10_n03662601_9752.JPEG
alexnet,1,259,NaN,boat,boat,c50,0259_con_dnn_c50_boat_10_n04273569_1450.JPEG
alexnet,1,260,NaN,boat,boat,c50,0260_con_dnn_c50_boat_10_n04273569_10698.JPEG
alexnet,1,261,NaN,cat,cat,c50,0261_con_dnn_c50_cat_10_n02123045_262.JPEG
alexnet,1,262,NaN,cat,cat,c50,0262_con_dnn_c50_cat_10_n02123394_50.JPEG
alexnet,1,263,NaN,cat,cat,c50,0263_con_dnn_c50_cat_10_n02125311_203.JPEG
alexnet,1,264,NaN,cat,cat,c50,0264_con_dnn_c50_cat_10_n02124075_10418.JPEG
alexnet,1,265,NaN,cat,cat,c50,0265_con_dnn_c50_cat_10_n02125311_44817.JPEG
alexnet,1,266,NaN,truck,cat,c50,0266_con_dnn_c50_cat_10_n02123597_2393.JPEG
alexnet,1,267,NaN,cat,cat,c50,0267_con_dnn_c50_cat_10_n02123045_9721.JPEG
alexnet,1,268,NaN,cat,cat,c50,0268_con_dnn_c50_cat_10_n02123394_2984.JPEG
alexnet,1,269,NaN,cat,cat,c50,0269_con_dnn_c50_cat_10_n02123045_3941.JPEG
alexnet,1,270,NaN,cat,cat,c50,0270_con_dnn_c50_cat_10_n02123597_1294.JPEG
alexnet,1,271,NaN,bottle,bottle,c50,0271_con_dnn_c50_bottle_10_n04557648_10619.JPEG
alexnet,1,272,NaN,bottle,bottle,c50,0272_con_dnn_c50_bottle_10_n03983396_14939.JPEG
alexnet,1,273,NaN,bottle,bottle,c50,0273_con_dnn_c50_bottle_10_n04579145_7117.JPEG
alexnet,1,274,NaN,dog,bottle,c50,0274_con_dnn_c50_bottle_10_n04591713_3565.JPEG
alexnet,1,275,NaN,bottle,bottle,c50,0275_con_dnn_c50_bottle_10_n04591713_13589.JPEG
alexnet,1,276,NaN,bottle,bottle,c50,0276_con_dnn_c50_bottle_10_n04591713_1604.JPEG
alexnet,1,277,NaN,bottle,bottle,c50,0277_con_dnn_c50_bottle_10_n02823428_3858.JPEG
alexnet,1,278,NaN,bottle,bottle,c50,0278_con_dnn_c50_bottle_10_n02823428_10635.JPEG
alexnet,1,279,NaN,bottle,bottle,c50,0279_con_dnn_c50_bottle_10_n03983396_6287.JPEG
alexnet,1,280,NaN,dog,bottle,c50,0280_con_dnn_c50_bottle_10_n03983396_11469.JPEG
alexnet,1,281,NaN,truck,truck,c50,0281_con_dnn_c50_truck_10_n03417042_5098.JPEG
alexnet,1,282,NaN,truck,truck,c50,0282_con_dnn_c50_truck_10_n04467665_78325.JPEG
alexnet,1,283,NaN,truck,truck,c50,0283_con_dnn_c50_truck_10_n03417042_19668.JPEG
alexnet,1,284,NaN,truck,truck,c50,0284_con_dnn_c50_truck_10_n03417042_10442.JPEG
alexnet,1,285,NaN,truck,truck,c50,0285_con_dnn_c50_truck_10_n03796401_8944.JPEG
alexnet,1,286,NaN,truck,truck,c50,0286_con_dnn_c50_truck_10_n04467665_20363.JPEG
alexnet,1,287,NaN,truck,truck,c50,0287_con_dnn_c50_truck_10_n04467665_71083.JPEG
alexnet,1,288,NaN,truck,truck,c50,0288_con_dnn_c50_truck_10_n03417042_22866.JPEG
alexnet,1,289,NaN,truck,truck,c50,0289_con_dnn_c50_truck_10_n03417042_14500.JPEG
alexnet,1,290,NaN,truck,truck,c50,0290_con_dnn_c50_truck_10_n03417042_16514.JPEG
alexnet,1,291,NaN,car,car,c50,0291_con_dnn_c50_car_10_n04285008_2409.JPEG
alexnet,1,292,NaN,car,car,c50,0292_con_dnn_c50_car_10_n02814533_92011.JPEG
alexnet,1,293,NaN,car,car,c50,0293_con_dnn_c50_car_10_n03100240_1018.JPEG
alexnet,1,294,NaN,car,car,c50,0294_con_dnn_c50_car_10_n03100240_549.JPEG
alexnet,1,295,NaN,car,car,c50,0295_con_dnn_c50_car_10_n04285008_5247.JPEG
alexnet,1,296,NaN,car,car,c50,0296_con_dnn_c50_car_10_n03100240_20935.JPEG
alexnet,1,297,NaN,truck,car,c50,0297_con_dnn_c50_car_10_n04285008_4730.JPEG
alexnet,1,298,NaN,car,car,c50,0298_con_dnn_c50_car_10_n02814533_41531.JPEG
alexnet,1,299,NaN,truck,car,c50,0299_con_dnn_c50_car_10_n02814533_42859.JPEG
alexnet,1,300,NaN,bottle,car,c50,0300_con_dnn_c50_car_10_n02814533_40648.JPEG
alexnet,1,301,NaN,bird,bird,c50,0301_con_dnn_c50_bird_10_n01530575_3994.JPEG
alexnet,1,302,NaN,bird,bird,c50,0302_con_dnn_c50_bird_10_n01601694_6764.JPEG
alexnet,1,303,NaN,bird,bird,c50,0303_con_dnn_c50_bird_10_n01797886_2711.JPEG
alexnet,1,304,NaN,bird,bird,c50,0304_con_dnn_c50_bird_10_n02011460_4400.JPEG
alexnet,1,305,NaN,bird,bird,c50,0305_con_dnn_c50_bird_10_n01819313_3489.JPEG
alexnet,1,306,NaN,bird,bird,c50,0306_con_dnn_c50_bird_10_n02051845_10743.JPEG
alexnet,1,307,NaN,bird,bird,c50,0307_con_dnn_c50_bird_10_n01855032_3721.JPEG
alexnet,1,308,NaN,bird,bird,c50,0308_con_dnn_c50_bird_10_n02009229_4755.JPEG
alexnet,1,309,NaN,bird,bird,c50,0309_con_dnn_c50_bird_10_n01855672_5132.JPEG
alexnet,1,310,NaN,bird,bird,c50,0310_con_dnn_c50_bird_10_n02056570_2946.JPEG
alexnet,1,311,NaN,dog,dog,c50,0311_con_dnn_c50_dog_10_n02099267_1766.JPEG
alexnet,1,312,NaN,dog,dog,c50,0312_con_dnn_c50_dog_10_n02113799_1530.JPEG
alexnet,1,313,NaN,dog,dog,c50,0313_con_dnn_c50_dog_10_n02088364_1169.JPEG
alexnet,1,314,NaN,dog,dog,c50,0314_con_dnn_c50_dog_10_n02088094_4455.JPEG
alexnet,1,315,NaN,dog,dog,c50,0315_con_dnn_c50_dog_10_n02088466_8162.JPEG
alexnet,1,316,NaN,dog,dog,c50,0316_con_dnn_c50_dog_10_n02089867_6692.JPEG
alexnet,1,317,NaN,dog,dog,c50,0317_con_dnn_c50_dog_10_n02097209_6813.JPEG
alexnet,1,318,NaN,dog,dog,c50,0318_con_dnn_c50_dog_10_n02091134_91.JPEG
alexnet,1,319,NaN,dog,dog,c50,0319_con_dnn_c50_dog_10_n02097047_1584.JPEG
alexnet,1,320,NaN,dog,dog,c50,0320_con_dnn_c50_dog_10_n02107908_8335.JPEG
alexnet,1,321,NaN,bottle,knife,c30,0321_con_dnn_c30_knife_10_n03041632_35764.JPEG
alexnet,1,322,NaN,knife,knife,c30,0322_con_dnn_c30_knife_10_n03041632_24228.JPEG
alexnet,1,323,NaN,knife,knife,c30,0323_con_dnn_c30_knife_10_n03041632_104379.JPEG
alexnet,1,324,NaN,bottle,knife,c30,0324_con_dnn_c30_knife_10_n03041632_22988.JPEG
alexnet,1,325,NaN,knife,knife,c30,0325_con_dnn_c30_knife_10_n03041632_9302.JPEG
alexnet,1,326,NaN,boat,knife,c30,0326_con_dnn_c30_knife_10_n03041632_55953.JPEG
alexnet,1,327,NaN,knife,knife,c30,0327_con_dnn_c30_knife_10_n03041632_52040.JPEG
alexnet,1,328,NaN,knife,knife,c30,0328_con_dnn_c30_knife_10_n03041632_6575.JPEG
alexnet,1,329,NaN,knife,knife,c30,0329_con_dnn_c30_knife_10_n03041632_28135.JPEG
alexnet,1,330,NaN,clock,knife,c30,0330_con_dnn_c30_knife_10_n03041632_45270.JPEG
alexnet,1,331,NaN,keyboard,keyboard,c30,0331_con_dnn_c30_keyboard_10_n04505470_1040.JPEG
alexnet,1,332,NaN,keyboard,keyboard,c30,0332_con_dnn_c30_keyboard_10_n03085013_21707.JPEG
alexnet,1,333,NaN,keyboard,keyboard,c30,0333_con_dnn_c30_keyboard_10_n03085013_9533.JPEG
alexnet,1,334,NaN,keyboard,keyboard,c30,0334_con_dnn_c30_keyboard_10_n03085013_19345.JPEG
alexnet,1,335,NaN,keyboard,keyboard,c30,0335_con_dnn_c30_keyboard_10_n04505470_4273.JPEG
alexnet,1,336,NaN,keyboard,keyboard,c30,0336_con_dnn_c30_keyboard_10_n03085013_7322.JPEG
alexnet,1,337,NaN,bottle,keyboard,c30,0337_con_dnn_c30_keyboard_10_n04505470_4366.JPEG
alexnet,1,338,NaN,keyboard,keyboard,c30,0338_con_dnn_c30_keyboard_10_n03085013_4823.JPEG
alexnet,1,339,NaN,keyboard,keyboard,c30,0339_con_dnn_c30_keyboard_10_n03085013_21981.JPEG
alexnet,1,340,NaN,keyboard,keyboard,c30,0340_con_dnn_c30_keyboard_10_n03085013_6815.JPEG
alexnet,1,341,NaN,elephant,elephant,c30,0341_con_dnn_c30_elephant_10_n02504458_13245.JPEG
alexnet,1,342,NaN,elephant,elephant,c30,0342_con_dnn_c30_elephant_10_n02504013_6112.JPEG
alexnet,1,343,NaN,elephant,elephant,c30,0343_con_dnn_c30_elephant_10_n02504458_11772.JPEG
alexnet,1,344,NaN,elephant,elephant,c30,0344_con_dnn_c30_elephant_10_n02504013_24486.JPEG
alexnet,1,345,NaN,elephant,elephant,c30,0345_con_dnn_c30_elephant_10_n02504458_5869.JPEG
alexnet,1,346,NaN,elephant,elephant,c30,0346_con_dnn_c30_elephant_10_n02504458_6302.JPEG
alexnet,1,347,NaN,dog,elephant,c30,0347_con_dnn_c30_elephant_10_n02504013_4288.JPEG
alexnet,1,348,NaN,elephant,elephant,c30,0348_con_dnn_c30_elephant_10_n02504013_2095.JPEG
alexnet,1,349,NaN,elephant,elephant,c30,0349_con_dnn_c30_elephant_10_n02504013_7659.JPEG
alexnet,1,350,NaN,elephant,elephant,c30,0350_con_dnn_c30_elephant_10_n02504013_5463.JPEG
alexnet,1,351,NaN,airplane,bicycle,c30,0351_con_dnn_c30_bicycle_10_n02835271_6826.JPEG
alexnet,1,352,NaN,chair,bicycle,c30,0352_con_dnn_c30_bicycle_10_n02835271_12173.JPEG
alexnet,1,353,NaN,clock,bicycle,c30,0353_con_dnn_c30_bicycle_10_n02835271_43.JPEG
alexnet,1,354,NaN,dog,bicycle,c30,0354_con_dnn_c30_bicycle_10_n03792782_19840.JPEG
alexnet,1,355,NaN,bicycle,bicycle,c30,0355_con_dnn_c30_bicycle_10_n03792782_18308.JPEG
alexnet,1,356,NaN,chair,bicycle,c30,0356_con_dnn_c30_bicycle_10_n03792782_5639.JPEG
alexnet,1,357,NaN,chair,bicycle,c30,0357_con_dnn_c30_bicycle_10_n02835271_12473.JPEG
alexnet,1,358,NaN,bird,bicycle,c30,0358_con_dnn_c30_bicycle_10_n02835271_14176.JPEG
alexnet,1,359,NaN,bottle,bicycle,c30,0359_con_dnn_c30_bicycle_10_n02835271_12042.JPEG
alexnet,1,360,NaN,bicycle,bicycle,c30,0360_con_dnn_c30_bicycle_10_n02835271_20004.JPEG
alexnet,1,361,NaN,airplane,airplane,c30,0361_con_dnn_c30_airplane_10_n02690373_3263.JPEG
alexnet,1,362,NaN,airplane,airplane,c30,0362_con_dnn_c30_airplane_10_n02690373_4873.JPEG
alexnet,1,363,NaN,bottle,airplane,c30,0363_con_dnn_c30_airplane_10_n02690373_1094.JPEG
alexnet,1,364,NaN,airplane,airplane,c30,0364_con_dnn_c30_airplane_10_n02690373_10514.JPEG
alexnet,1,365,NaN,airplane,airplane,c30,0365_con_dnn_c30_airplane_10_n02690373_18460.JPEG
alexnet,1,366,NaN,airplane,airplane,c30,0366_con_dnn_c30_airplane_10_n02690373_1862.JPEG
alexnet,1,367,NaN,airplane,airplane,c30,0367_con_dnn_c30_airplane_10_n02690373_462.JPEG
alexnet,1,368,NaN,airplane,airplane,c30,0368_con_dnn_c30_airplane_10_n02690373_8641.JPEG
alexnet,1,369,NaN,airplane,airplane,c30,0369_con_dnn_c30_airplane_10_n02690373_919.JPEG
alexnet,1,370,NaN,airplane,airplane,c30,0370_con_dnn_c30_airplane_10_n02690373_6576.JPEG
alexnet,1,371,NaN,clock,clock,c30,0371_con_dnn_c30_clock_10_n02708093_3662.JPEG
alexnet,1,372,NaN,clock,clock,c30,0372_con_dnn_c30_clock_10_n04548280_3746.JPEG
alexnet,1,373,NaN,keyboard,clock,c30,0373_con_dnn_c30_clock_10_n02708093_6816.JPEG
alexnet,1,374,NaN,boat,clock,c30,0374_con_dnn_c30_clock_10_n04548280_3610.JPEG
alexnet,1,375,NaN,bottle,clock,c30,0375_con_dnn_c30_clock_10_n04548280_4302.JPEG
alexnet,1,376,NaN,bottle,clock,c30,0376_con_dnn_c30_clock_10_n03196217_6999.JPEG
alexnet,1,377,NaN,clock,clock,c30,0377_con_dnn_c30_clock_10_n04548280_2717.JPEG
alexnet,1,378,NaN,bottle,clock,c30,0378_con_dnn_c30_clock_10_n03196217_3022.JPEG
alexnet,1,379,NaN,clock,clock,c30,0379_con_dnn_c30_clock_10_n03196217_379.JPEG
alexnet,1,380,NaN,clock,clock,c30,0380_con_dnn_c30_clock_10_n04548280_6811.JPEG
alexnet,1,381,NaN,oven,oven,c30,0381_con_dnn_c30_oven_10_n04111531_6536.JPEG
alexnet,1,382,NaN,oven,oven,c30,0382_con_dnn_c30_oven_10_n04111531_594.JPEG
alexnet,1,383,NaN,clock,oven,c30,0383_con_dnn_c30_oven_10_n04111531_1362.JPEG
alexnet,1,384,NaN,chair,oven,c30,0384_con_dnn_c30_oven_10_n04111531_9695.JPEG
alexnet,1,385,NaN,oven,oven,c30,0385_con_dnn_c30_oven_10_n04111531_19000.JPEG
alexnet,1,386,NaN,bottle,oven,c30,0386_con_dnn_c30_oven_10_n04111531_20914.JPEG
alexnet,1,387,NaN,oven,oven,c30,0387_con_dnn_c30_oven_10_n04111531_550.JPEG
alexnet,1,388,NaN,oven,oven,c30,0388_con_dnn_c30_oven_10_n04111531_21232.JPEG
alexnet,1,389,NaN,oven,oven,c30,0389_con_dnn_c30_oven_10_n04111531_5904.JPEG
alexnet,1,390,NaN,keyboard,oven,c30,0390_con_dnn_c30_oven_10_n04111531_1330.JPEG
alexnet,1,391,NaN,chair,chair,c30,0391_con_dnn_c30_chair_10_n04429376_47345.JPEG
alexnet,1,392,NaN,chair,chair,c30,0392_con_dnn_c30_chair_10_n03376595_5421.JPEG
alexnet,1,393,NaN,bird,chair,c30,0393_con_dnn_c30_chair_10_n03376595_4004.JPEG
alexnet,1,394,NaN,chair,chair,c30,0394_con_dnn_c30_chair_10_n02791124_750.JPEG
alexnet,1,395,NaN,chair,chair,c30,0395_con_dnn_c30_chair_10_n04429376_38542.JPEG
alexnet,1,396,NaN,chair,chair,c30,0396_con_dnn_c30_chair_10_n02791124_1333.JPEG
alexnet,1,397,NaN,chair,chair,c30,0397_con_dnn_c30_chair_10_n04429376_6915.JPEG
alexnet,1,398,NaN,chair,chair,c30,0398_con_dnn_c30_chair_10_n04429376_23293.JPEG
alexnet,1,399,NaN,chair,chair,c30,0399_con_dnn_c30_chair_10_n02791124_670.JPEG
alexnet,1,400,NaN,chair,chair,c30,0400_con_dnn_c30_chair_10_n02791124_2470.JPEG
alexnet,1,401,NaN,bear,bear,c30,0401_con_dnn_c30_bear_10_n02132136_2116.JPEG
alexnet,1,402,NaN,bear,bear,c30,0402_con_dnn_c30_bear_10_n02133161_2741.JPEG
alexnet,1,403,NaN,bear,bear,c30,0403_con_dnn_c30_bear_10_n02134418_13618.JPEG
alexnet,1,404,NaN,bear,bear,c30,0404_con_dnn_c30_bear_10_n02133161_5365.JPEG
alexnet,1,405,NaN,bear,bear,c30,0405_con_dnn_c30_bear_10_n02134084_134.JPEG
alexnet,1,406,NaN,dog,bear,c30,0406_con_dnn_c30_bear_10_n02133161_1737.JPEG
alexnet,1,407,NaN,dog,bear,c30,0407_con_dnn_c30_bear_10_n02133161_1561.JPEG
alexnet,1,408,NaN,dog,bear,c30,0408_con_dnn_c30_bear_10_n02134418_3370.JPEG
alexnet,1,409,NaN,bear,bear,c30,0409_con_dnn_c30_bear_10_n02134084_1999.JPEG
alexnet,1,410,NaN,dog,bear,c30,0410_con_dnn_c30_bear_10_n02132136_4578.JPEG
alexnet,1,411,NaN,boat,boat,c30,0411_con_dnn_c30_boat_10_n04273569_4065.JPEG
alexnet,1,412,NaN,boat,boat,c30,0412_con_dnn_c30_boat_10_n03344393_3355.JPEG
alexnet,1,413,NaN,boat,boat,c30,0413_con_dnn_c30_boat_10_n04273569_345.JPEG
alexnet,1,414,NaN,boat,boat,c30,0414_con_dnn_c30_boat_10_n02951358_26332.JPEG
alexnet,1,415,NaN,boat,boat,c30,0415_con_dnn_c30_boat_10_n03662601_4061.JPEG
alexnet,1,416,NaN,dog,boat,c30,0416_con_dnn_c30_boat_10_n04612504_3667.JPEG
alexnet,1,417,NaN,boat,boat,c30,0417_con_dnn_c30_boat_10_n03662601_1789.JPEG
alexnet,1,418,NaN,truck,boat,c30,0418_con_dnn_c30_boat_10_n03344393_3725.JPEG
alexnet,1,419,NaN,boat,boat,c30,0419_con_dnn_c30_boat_10_n03344393_2977.JPEG
alexnet,1,420,NaN,boat,boat,c30,0420_con_dnn_c30_boat_10_n04612504_2146.JPEG
alexnet,1,421,NaN,cat,cat,c30,0421_con_dnn_c30_cat_10_n02123597_5181.JPEG
alexnet,1,422,NaN,dog,cat,c30,0422_con_dnn_c30_cat_10_n02125311_45145.JPEG
alexnet,1,423,NaN,cat,cat,c30,0423_con_dnn_c30_cat_10_n02123394_2010.JPEG
alexnet,1,424,NaN,dog,cat,c30,0424_con_dnn_c30_cat_10_n02124075_3706.JPEG
alexnet,1,425,NaN,cat,cat,c30,0425_con_dnn_c30_cat_10_n02123159_7277.JPEG
alexnet,1,426,NaN,bear,cat,c30,0426_con_dnn_c30_cat_10_n02125311_3889.JPEG
alexnet,1,427,NaN,cat,cat,c30,0427_con_dnn_c30_cat_10_n02124075_543.JPEG
alexnet,1,428,NaN,chair,cat,c30,0428_con_dnn_c30_cat_10_n02123597_7702.JPEG
alexnet,1,429,NaN,cat,cat,c30,0429_con_dnn_c30_cat_10_n02124075_5238.JPEG
alexnet,1,430,NaN,dog,cat,c30,0430_con_dnn_c30_cat_10_n02123045_13322.JPEG
alexnet,1,431,NaN,bottle,bottle,c30,0431_con_dnn_c30_bottle_10_n04560804_25649.JPEG
alexnet,1,432,NaN,bottle,bottle,c30,0432_con_dnn_c30_bottle_10_n03983396_3967.JPEG
alexnet,1,433,NaN,bottle,bottle,c30,0433_con_dnn_c30_bottle_10_n04560804_15289.JPEG
alexnet,1,434,NaN,bottle,bottle,c30,0434_con_dnn_c30_bottle_10_n04591713_3371.JPEG
alexnet,1,435,NaN,bottle,bottle,c30,0435_con_dnn_c30_bottle_10_n04591713_4255.JPEG
alexnet,1,436,NaN,bottle,bottle,c30,0436_con_dnn_c30_bottle_10_n03983396_313.JPEG
alexnet,1,437,NaN,bottle,bottle,c30,0437_con_dnn_c30_bottle_10_n02823428_4605.JPEG
alexnet,1,438,NaN,chair,bottle,c30,0438_con_dnn_c30_bottle_10_n02823428_8543.JPEG
alexnet,1,439,NaN,clock,bottle,c30,0439_con_dnn_c30_bottle_10_n04591713_6024.JPEG
alexnet,1,440,NaN,bottle,bottle,c30,0440_con_dnn_c30_bottle_10_n04560804_6547.JPEG
alexnet,1,441,NaN,truck,truck,c30,0441_con_dnn_c30_truck_10_n03796401_23734.JPEG
alexnet,1,442,NaN,truck,truck,c30,0442_con_dnn_c30_truck_10_n04467665_45114.JPEG
alexnet,1,443,NaN,truck,truck,c30,0443_con_dnn_c30_truck_10_n04467665_5874.JPEG
alexnet,1,444,NaN,truck,truck,c30,0444_con_dnn_c30_truck_10_n03417042_3825.JPEG
alexnet,1,445,NaN,airplane,truck,c30,0445_con_dnn_c30_truck_10_n03417042_15045.JPEG
alexnet,1,446,NaN,truck,truck,c30,0446_con_dnn_c30_truck_10_n03417042_803.JPEG
alexnet,1,447,NaN,bottle,truck,c30,0447_con_dnn_c30_truck_10_n03417042_20736.JPEG
alexnet,1,448,NaN,truck,truck,c30,0448_con_dnn_c30_truck_10_n03417042_10744.JPEG
alexnet,1,449,NaN,truck,truck,c30,0449_con_dnn_c30_truck_10_n03796401_7249.JPEG
alexnet,1,450,NaN,chair,truck,c30,0450_con_dnn_c30_truck_10_n03417042_29342.JPEG
alexnet,1,451,NaN,car,car,c30,0451_con_dnn_c30_car_10_n02814533_3697.JPEG
alexnet,1,452,NaN,car,car,c30,0452_con_dnn_c30_car_10_n04285008_507.JPEG
alexnet,1,453,NaN,car,car,c30,0453_con_dnn_c30_car_10_n03100240_5532.JPEG
alexnet,1,454,NaN,car,car,c30,0454_con_dnn_c30_car_10_n03100240_6948.JPEG
alexnet,1,455,NaN,bottle,car,c30,0455_con_dnn_c30_car_10_n02814533_74394.JPEG
alexnet,1,456,NaN,truck,car,c30,0456_con_dnn_c30_car_10_n04285008_13354.JPEG
alexnet,1,457,NaN,truck,car,c30,0457_con_dnn_c30_car_10_n04285008_8880.JPEG
alexnet,1,458,NaN,car,car,c30,0458_con_dnn_c30_car_10_n03100240_15721.JPEG
alexnet,1,459,NaN,car,car,c30,0459_con_dnn_c30_car_10_n02814533_31743.JPEG
alexnet,1,460,NaN,car,car,c30,0460_con_dnn_c30_car_10_n03100240_8996.JPEG
alexnet,1,461,NaN,bird,bird,c30,0461_con_dnn_c30_bird_10_n02006656_5111.JPEG
alexnet,1,462,NaN,bird,bird,c30,0462_con_dnn_c30_bird_10_n01828970_7576.JPEG
alexnet,1,463,NaN,bird,bird,c30,0463_con_dnn_c30_bird_10_n02037110_5194.JPEG
alexnet,1,464,NaN,bottle,bird,c30,0464_con_dnn_c30_bird_10_n02018207_11358.JPEG
alexnet,1,465,NaN,bird,bird,c30,0465_con_dnn_c30_bird_10_n01828970_6035.JPEG
alexnet,1,466,NaN,bird,bird,c30,0466_con_dnn_c30_bird_10_n01819313_4274.JPEG
alexnet,1,467,NaN,bird,bird,c30,0467_con_dnn_c30_bird_10_n02028035_2303.JPEG
alexnet,1,468,NaN,bird,bird,c30,0468_con_dnn_c30_bird_10_n02051845_9860.JPEG
alexnet,1,469,NaN,bird,bird,c30,0469_con_dnn_c30_bird_10_n02009229_10995.JPEG
alexnet,1,470,NaN,bird,bird,c30,0470_con_dnn_c30_bird_10_n02025239_1214.JPEG
alexnet,1,471,NaN,dog,dog,c30,0471_con_dnn_c30_dog_10_n02111500_14.JPEG
alexnet,1,472,NaN,dog,dog,c30,0472_con_dnn_c30_dog_10_n02110185_5030.JPEG
alexnet,1,473,NaN,bear,dog,c30,0473_con_dnn_c30_dog_10_n02105641_6218.JPEG
alexnet,1,474,NaN,bear,dog,c30,0474_con_dnn_c30_dog_10_n02113023_4979.JPEG
alexnet,1,475,NaN,dog,dog,c30,0475_con_dnn_c30_dog_10_n02100236_8639.JPEG
alexnet,1,476,NaN,dog,dog,c30,0476_con_dnn_c30_dog_10_n02091244_11584.JPEG
alexnet,1,477,NaN,dog,dog,c30,0477_con_dnn_c30_dog_10_n02096585_1799.JPEG
alexnet,1,478,NaN,dog,dog,c30,0478_con_dnn_c30_dog_10_n02099712_7511.JPEG
alexnet,1,479,NaN,cat,dog,c30,0479_con_dnn_c30_dog_10_n02097047_260.JPEG
alexnet,1,480,NaN,dog,dog,c30,0480_con_dnn_c30_dog_10_n02105855_9079.JPEG
alexnet,1,481,NaN,boat,knife,c15,0481_con_dnn_c15_knife_10_n03041632_86338.JPEG
alexnet,1,482,NaN,bottle,knife,c15,0482_con_dnn_c15_knife_10_n03041632_20576.JPEG
alexnet,1,483,NaN,chair,knife,c15,0483_con_dnn_c15_knife_10_n03041632_101673.JPEG
alexnet,1,484,NaN,dog,knife,c15,0484_con_dnn_c15_knife_10_n03041632_40652.JPEG
alexnet,1,485,NaN,bottle,knife,c15,0485_con_dnn_c15_knife_10_n03041632_22051.JPEG
alexnet,1,486,NaN,knife,knife,c15,0486_con_dnn_c15_knife_10_n03041632_80829.JPEG
alexnet,1,487,NaN,airplane,knife,c15,0487_con_dnn_c15_knife_10_n03041632_2973.JPEG
alexnet,1,488,NaN,boat,knife,c15,0488_con_dnn_c15_knife_10_n03041632_3504.JPEG
alexnet,1,489,NaN,bottle,knife,c15,0489_con_dnn_c15_knife_10_n03041632_383.JPEG
alexnet,1,490,NaN,knife,knife,c15,0490_con_dnn_c15_knife_10_n03041632_41493.JPEG
alexnet,1,491,NaN,chair,keyboard,c15,0491_con_dnn_c15_keyboard_10_n03085013_5884.JPEG
alexnet,1,492,NaN,keyboard,keyboard,c15,0492_con_dnn_c15_keyboard_10_n03085013_24460.JPEG
alexnet,1,493,NaN,airplane,keyboard,c15,0493_con_dnn_c15_keyboard_10_n03085013_23561.JPEG
alexnet,1,494,NaN,chair,keyboard,c15,0494_con_dnn_c15_keyboard_10_n03085013_23483.JPEG
alexnet,1,495,NaN,bottle,keyboard,c15,0495_con_dnn_c15_keyboard_10_n04505470_54.JPEG
alexnet,1,496,NaN,clock,keyboard,c15,0496_con_dnn_c15_keyboard_10_n03085013_21678.JPEG
alexnet,1,497,NaN,bottle,keyboard,c15,0497_con_dnn_c15_keyboard_10_n03085013_20303.JPEG
alexnet,1,498,NaN,keyboard,keyboard,c15,0498_con_dnn_c15_keyboard_10_n03085013_21807.JPEG
alexnet,1,499,NaN,oven,keyboard,c15,0499_con_dnn_c15_keyboard_10_n03085013_16871.JPEG
alexnet,1,500,NaN,keyboard,keyboard,c15,0500_con_dnn_c15_keyboard_10_n03085013_5157.JPEG
alexnet,1,501,NaN,bear,elephant,c15,0501_con_dnn_c15_elephant_10_n02504013_6120.JPEG
alexnet,1,502,NaN,dog,elephant,c15,0502_con_dnn_c15_elephant_10_n02504013_6001.JPEG
alexnet,1,503,NaN,bear,elephant,c15,0503_con_dnn_c15_elephant_10_n02504458_10878.JPEG
alexnet,1,504,NaN,bear,elephant,c15,0504_con_dnn_c15_elephant_10_n02504013_9491.JPEG
alexnet,1,505,NaN,elephant,elephant,c15,0505_con_dnn_c15_elephant_10_n02504458_2908.JPEG
alexnet,1,506,NaN,bear,elephant,c15,0506_con_dnn_c15_elephant_10_n02504458_6612.JPEG
alexnet,1,507,NaN,dog,elephant,c15,0507_con_dnn_c15_elephant_10_n02504013_3805.JPEG
alexnet,1,508,NaN,bear,elephant,c15,0508_con_dnn_c15_elephant_10_n02504013_5890.JPEG
alexnet,1,509,NaN,dog,elephant,c15,0509_con_dnn_c15_elephant_10_n02504458_1410.JPEG
alexnet,1,510,NaN,bear,elephant,c15,0510_con_dnn_c15_elephant_10_n02504458_1933.JPEG
alexnet,1,511,NaN,clock,bicycle,c15,0511_con_dnn_c15_bicycle_10_n02835271_70.JPEG
alexnet,1,512,NaN,bicycle,bicycle,c15,0512_con_dnn_c15_bicycle_10_n02835271_1733.JPEG
alexnet,1,513,NaN,chair,bicycle,c15,0513_con_dnn_c15_bicycle_10_n03792782_5058.JPEG
alexnet,1,514,NaN,chair,bicycle,c15,0514_con_dnn_c15_bicycle_10_n03792782_6319.JPEG
alexnet,1,515,NaN,chair,bicycle,c15,0515_con_dnn_c15_bicycle_10_n03792782_55532.JPEG
alexnet,1,516,NaN,truck,bicycle,c15,0516_con_dnn_c15_bicycle_10_n02835271_25718.JPEG
alexnet,1,517,NaN,dog,bicycle,c15,0517_con_dnn_c15_bicycle_10_n02835271_15038.JPEG
alexnet,1,518,NaN,bicycle,bicycle,c15,0518_con_dnn_c15_bicycle_10_n03792782_19857.JPEG
alexnet,1,519,NaN,bicycle,bicycle,c15,0519_con_dnn_c15_bicycle_10_n03792782_13074.JPEG
alexnet,1,520,NaN,bird,bicycle,c15,0520_con_dnn_c15_bicycle_10_n03792782_3897.JPEG
alexnet,1,521,NaN,airplane,airplane,c15,0521_con_dnn_c15_airplane_10_n02690373_2253.JPEG
alexnet,1,522,NaN,boat,airplane,c15,0522_con_dnn_c15_airplane_10_n02690373_9471.JPEG
alexnet,1,523,NaN,airplane,airplane,c15,0523_con_dnn_c15_airplane_10_n02690373_2605.JPEG
alexnet,1,524,NaN,airplane,airplane,c15,0524_con_dnn_c15_airplane_10_n02690373_1442.JPEG
alexnet,1,525,NaN,airplane,airplane,c15,0525_con_dnn_c15_airplane_10_n02690373_7676.JPEG
alexnet,1,526,NaN,airplane,airplane,c15,0526_con_dnn_c15_airplane_10_n02690373_1828.JPEG
alexnet,1,527,NaN,airplane,airplane,c15,0527_con_dnn_c15_airplane_10_n02690373_10769.JPEG
alexnet,1,528,NaN,airplane,airplane,c15,0528_con_dnn_c15_airplane_10_n02690373_866.JPEG
alexnet,1,529,NaN,bottle,airplane,c15,0529_con_dnn_c15_airplane_10_n02690373_961.JPEG
alexnet,1,530,NaN,airplane,airplane,c15,0530_con_dnn_c15_airplane_10_n02690373_5967.JPEG
alexnet,1,531,NaN,clock,clock,c15,0531_con_dnn_c15_clock_10_n02708093_1281.JPEG
alexnet,1,532,NaN,clock,clock,c15,0532_con_dnn_c15_clock_10_n02708093_685.JPEG
alexnet,1,533,NaN,clock,clock,c15,0533_con_dnn_c15_clock_10_n04548280_22849.JPEG
alexnet,1,534,NaN,clock,clock,c15,0534_con_dnn_c15_clock_10_n02708093_7967.JPEG
alexnet,1,535,NaN,clock,clock,c15,0535_con_dnn_c15_clock_10_n02708093_774.JPEG
alexnet,1,536,NaN,knife,clock,c15,0536_con_dnn_c15_clock_10_n03196217_2607.JPEG
alexnet,1,537,NaN,clock,clock,c15,0537_con_dnn_c15_clock_10_n02708093_3305.JPEG
alexnet,1,538,NaN,clock,clock,c15,0538_con_dnn_c15_clock_10_n02708093_5634.JPEG
alexnet,1,539,NaN,clock,clock,c15,0539_con_dnn_c15_clock_10_n04548280_9700.JPEG
alexnet,1,540,NaN,clock,clock,c15,0540_con_dnn_c15_clock_10_n04548280_286.JPEG
alexnet,1,541,NaN,clock,oven,c15,0541_con_dnn_c15_oven_10_n04111531_23830.JPEG
alexnet,1,542,NaN,bottle,oven,c15,0542_con_dnn_c15_oven_10_n04111531_4.JPEG
alexnet,1,543,NaN,chair,oven,c15,0543_con_dnn_c15_oven_10_n04111531_19075.JPEG
alexnet,1,544,NaN,bottle,oven,c15,0544_con_dnn_c15_oven_10_n04111531_9692.JPEG
alexnet,1,545,NaN,bear,oven,c15,0545_con_dnn_c15_oven_10_n04111531_8984.JPEG
alexnet,1,546,NaN,dog,oven,c15,0546_con_dnn_c15_oven_10_n04111531_5756.JPEG
alexnet,1,547,NaN,dog,oven,c15,0547_con_dnn_c15_oven_10_n04111531_1725.JPEG
alexnet,1,548,NaN,bottle,oven,c15,0548_con_dnn_c15_oven_10_n04111531_5776.JPEG
alexnet,1,549,NaN,bottle,oven,c15,0549_con_dnn_c15_oven_10_n04111531_16144.JPEG
alexnet,1,550,NaN,dog,oven,c15,0550_con_dnn_c15_oven_10_n04111531_5218.JPEG
alexnet,1,551,NaN,bottle,chair,c15,0551_con_dnn_c15_chair_10_n02791124_13073.JPEG
alexnet,1,552,NaN,bottle,chair,c15,0552_con_dnn_c15_chair_10_n02791124_372.JPEG
alexnet,1,553,NaN,chair,chair,c15,0553_con_dnn_c15_chair_10_n04099969_2461.JPEG
alexnet,1,554,NaN,bottle,chair,c15,0554_con_dnn_c15_chair_10_n02791124_3326.JPEG
alexnet,1,555,NaN,chair,chair,c15,0555_con_dnn_c15_chair_10_n04099969_1246.JPEG
alexnet,1,556,NaN,boat,chair,c15,0556_con_dnn_c15_chair_10_n02791124_3198.JPEG
alexnet,1,557,NaN,chair,chair,c15,0557_con_dnn_c15_chair_10_n02791124_291.JPEG
alexnet,1,558,NaN,chair,chair,c15,0558_con_dnn_c15_chair_10_n03376595_3574.JPEG
alexnet,1,559,NaN,chair,chair,c15,0559_con_dnn_c15_chair_10_n02791124_612.JPEG
alexnet,1,560,NaN,bottle,chair,c15,0560_con_dnn_c15_chair_10_n03376595_8806.JPEG
alexnet,1,561,NaN,bottle,bear,c15,0561_con_dnn_c15_bear_10_n02133161_1585.JPEG
alexnet,1,562,NaN,bear,bear,c15,0562_con_dnn_c15_bear_10_n02132136_5402.JPEG
alexnet,1,563,NaN,bear,bear,c15,0563_con_dnn_c15_bear_10_n02132136_8032.JPEG
alexnet,1,564,NaN,bear,bear,c15,0564_con_dnn_c15_bear_10_n02132136_1914.JPEG
alexnet,1,565,NaN,bear,bear,c15,0565_con_dnn_c15_bear_10_n02132136_18001.JPEG
alexnet,1,566,NaN,bear,bear,c15,0566_con_dnn_c15_bear_10_n02132136_21604.JPEG
alexnet,1,567,NaN,bear,bear,c15,0567_con_dnn_c15_bear_10_n02133161_4348.JPEG
alexnet,1,568,NaN,bear,bear,c15,0568_con_dnn_c15_bear_10_n02133161_1254.JPEG
alexnet,1,569,NaN,bottle,bear,c15,0569_con_dnn_c15_bear_10_n02133161_10705.JPEG
alexnet,1,570,NaN,bear,bear,c15,0570_con_dnn_c15_bear_10_n02132136_10029.JPEG
alexnet,1,571,NaN,boat,boat,c15,0571_con_dnn_c15_boat_10_n03344393_6897.JPEG
alexnet,1,572,NaN,boat,boat,c15,0572_con_dnn_c15_boat_10_n03662601_5057.JPEG
alexnet,1,573,NaN,boat,boat,c15,0573_con_dnn_c15_boat_10_n03662601_10036.JPEG
alexnet,1,574,NaN,bear,boat,c15,0574_con_dnn_c15_boat_10_n03662601_30311.JPEG
alexnet,1,575,NaN,bottle,boat,c15,0575_con_dnn_c15_boat_10_n03662601_4437.JPEG
alexnet,1,576,NaN,bottle,boat,c15,0576_con_dnn_c15_boat_10_n03344393_1533.JPEG
alexnet,1,577,NaN,boat,boat,c15,0577_con_dnn_c15_boat_10_n03344393_1406.JPEG
alexnet,1,578,NaN,boat,boat,c15,0578_con_dnn_c15_boat_10_n03344393_1652.JPEG
alexnet,1,579,NaN,boat,boat,c15,0579_con_dnn_c15_boat_10_n02951358_4025.JPEG
alexnet,1,580,NaN,bear,boat,c15,0580_con_dnn_c15_boat_10_n04612504_10936.JPEG
alexnet,1,581,NaN,bird,cat,c15,0581_con_dnn_c15_cat_10_n02124075_8889.JPEG
alexnet,1,582,NaN,bottle,cat,c15,0582_con_dnn_c15_cat_10_n02123394_1086.JPEG
alexnet,1,583,NaN,dog,cat,c15,0583_con_dnn_c15_cat_10_n02124075_12461.JPEG
alexnet,1,584,NaN,bird,cat,c15,0584_con_dnn_c15_cat_10_n02123045_5200.JPEG
alexnet,1,585,NaN,cat,cat,c15,0585_con_dnn_c15_cat_10_n02123159_8296.JPEG
alexnet,1,586,NaN,bird,cat,c15,0586_con_dnn_c15_cat_10_n02123045_1787.JPEG
alexnet,1,587,NaN,cat,cat,c15,0587_con_dnn_c15_cat_10_n02123597_1091.JPEG
alexnet,1,588,NaN,airplane,cat,c15,0588_con_dnn_c15_cat_10_n02123045_3896.JPEG
alexnet,1,589,NaN,cat,cat,c15,0589_con_dnn_c15_cat_10_n02123394_510.JPEG
alexnet,1,590,NaN,dog,cat,c15,0590_con_dnn_c15_cat_10_n02123597_14277.JPEG
alexnet,1,591,NaN,bottle,bottle,c15,0591_con_dnn_c15_bottle_10_n04560804_27095.JPEG
alexnet,1,592,NaN,bottle,bottle,c15,0592_con_dnn_c15_bottle_10_n04557648_3662.JPEG
alexnet,1,593,NaN,bottle,bottle,c15,0593_con_dnn_c15_bottle_10_n04560804_828.JPEG
alexnet,1,594,NaN,chair,bottle,c15,0594_con_dnn_c15_bottle_10_n04591713_128.JPEG
alexnet,1,595,NaN,bottle,bottle,c15,0595_con_dnn_c15_bottle_10_n04557648_2804.JPEG
alexnet,1,596,NaN,bottle,bottle,c15,0596_con_dnn_c15_bottle_10_n04557648_22235.JPEG
alexnet,1,597,NaN,bottle,bottle,c15,0597_con_dnn_c15_bottle_10_n03983396_3306.JPEG
alexnet,1,598,NaN,bottle,bottle,c15,0598_con_dnn_c15_bottle_10_n02823428_8525.JPEG
alexnet,1,599,NaN,bottle,bottle,c15,0599_con_dnn_c15_bottle_10_n04591713_3577.JPEG
alexnet,1,600,NaN,dog,bottle,c15,0600_con_dnn_c15_bottle_10_n04557648_1268.JPEG
alexnet,1,601,NaN,airplane,truck,c15,0601_con_dnn_c15_truck_10_n04467665_3378.JPEG
alexnet,1,602,NaN,truck,truck,c15,0602_con_dnn_c15_truck_10_n03417042_9062.JPEG
alexnet,1,603,NaN,truck,truck,c15,0603_con_dnn_c15_truck_10_n04467665_79576.JPEG
alexnet,1,604,NaN,truck,truck,c15,0604_con_dnn_c15_truck_10_n03417042_15928.JPEG
alexnet,1,605,NaN,truck,truck,c15,0605_con_dnn_c15_truck_10_n03417042_5685.JPEG
alexnet,1,606,NaN,truck,truck,c15,0606_con_dnn_c15_truck_10_n03417042_8297.JPEG
alexnet,1,607,NaN,truck,truck,c15,0607_con_dnn_c15_truck_10_n03417042_6187.JPEG
alexnet,1,608,NaN,truck,truck,c15,0608_con_dnn_c15_truck_10_n04467665_2790.JPEG
alexnet,1,609,NaN,bottle,truck,c15,0609_con_dnn_c15_truck_10_n03417042_2074.JPEG
alexnet,1,610,NaN,truck,truck,c15,0610_con_dnn_c15_truck_10_n03417042_3254.JPEG
alexnet,1,611,NaN,bottle,car,c15,0611_con_dnn_c15_car_10_n04285008_1674.JPEG
alexnet,1,612,NaN,bottle,car,c15,0612_con_dnn_c15_car_10_n02814533_39792.JPEG
alexnet,1,613,NaN,car,car,c15,0613_con_dnn_c15_car_10_n03100240_17393.JPEG
alexnet,1,614,NaN,car,car,c15,0614_con_dnn_c15_car_10_n03100240_7113.JPEG
alexnet,1,615,NaN,bottle,car,c15,0615_con_dnn_c15_car_10_n04285008_823.JPEG
alexnet,1,616,NaN,bottle,car,c15,0616_con_dnn_c15_car_10_n03100240_6144.JPEG
alexnet,1,617,NaN,car,car,c15,0617_con_dnn_c15_car_10_n02814533_10706.JPEG
alexnet,1,618,NaN,airplane,car,c15,0618_con_dnn_c15_car_10_n04285008_1391.JPEG
alexnet,1,619,NaN,truck,car,c15,0619_con_dnn_c15_car_10_n03100240_17973.JPEG
alexnet,1,620,NaN,car,car,c15,0620_con_dnn_c15_car_10_n04285008_3227.JPEG
alexnet,1,621,NaN,bird,bird,c15,0621_con_dnn_c15_bird_10_n01843065_6945.JPEG
alexnet,1,622,NaN,bear,bird,c15,0622_con_dnn_c15_bird_10_n02018795_11179.JPEG
alexnet,1,623,NaN,knife,bird,c15,0623_con_dnn_c15_bird_10_n02018795_6583.JPEG
alexnet,1,624,NaN,bird,bird,c15,0624_con_dnn_c15_bird_10_n02033041_5941.JPEG
alexnet,1,625,NaN,bird,bird,c15,0625_con_dnn_c15_bird_10_n02009912_3274.JPEG
alexnet,1,626,NaN,bird,bird,c15,0626_con_dnn_c15_bird_10_n01601694_6943.JPEG
alexnet,1,627,NaN,chair,bird,c15,0627_con_dnn_c15_bird_10_n01818515_8317.JPEG
alexnet,1,628,NaN,bird,bird,c15,0628_con_dnn_c15_bird_10_n02018795_6989.JPEG
alexnet,1,629,NaN,bird,bird,c15,0629_con_dnn_c15_bird_10_n01797886_14952.JPEG
alexnet,1,630,NaN,bird,bird,c15,0630_con_dnn_c15_bird_10_n01795545_10808.JPEG
alexnet,1,631,NaN,bear,dog,c15,0631_con_dnn_c15_dog_10_n02100877_2836.JPEG
alexnet,1,632,NaN,bear,dog,c15,0632_con_dnn_c15_dog_10_n02100735_9912.JPEG
alexnet,1,633,NaN,dog,dog,c15,0633_con_dnn_c15_dog_10_n02088466_5992.JPEG
alexnet,1,634,NaN,dog,dog,c15,0634_con_dnn_c15_dog_10_n02099712_599.JPEG
alexnet,1,635,NaN,dog,dog,c15,0635_con_dnn_c15_dog_10_n02096294_4421.JPEG
alexnet,1,636,NaN,dog,dog,c15,0636_con_dnn_c15_dog_10_n02106030_7645.JPEG
alexnet,1,637,NaN,dog,dog,c15,0637_con_dnn_c15_dog_10_n02085936_2916.JPEG
alexnet,1,638,NaN,cat,dog,c15,0638_con_dnn_c15_dog_10_n02105505_2304.JPEG
alexnet,1,639,NaN,bear,dog,c15,0639_con_dnn_c15_dog_10_n02091467_12910.JPEG
alexnet,1,640,NaN,bear,dog,c15,0640_con_dnn_c15_dog_10_n02088466_5577.JPEG
alexnet,1,641,NaN,bird,knife,c10,0641_con_dnn_c10_knife_10_n03041632_3005.JPEG
alexnet,1,642,NaN,airplane,knife,c10,0642_con_dnn_c10_knife_10_n03041632_25479.JPEG
alexnet,1,643,NaN,knife,knife,c10,0643_con_dnn_c10_knife_10_n03041632_4494.JPEG
alexnet,1,644,NaN,bottle,knife,c10,0644_con_dnn_c10_knife_10_n03041632_22241.JPEG
alexnet,1,645,NaN,knife,knife,c10,0645_con_dnn_c10_knife_10_n03041632_51225.JPEG
alexnet,1,646,NaN,bear,knife,c10,0646_con_dnn_c10_knife_10_n03041632_52848.JPEG
alexnet,1,647,NaN,bear,knife,c10,0647_con_dnn_c10_knife_10_n03041632_12130.JPEG
alexnet,1,648,NaN,knife,knife,c10,0648_con_dnn_c10_knife_10_n03041632_7090.JPEG
alexnet,1,649,NaN,bottle,knife,c10,0649_con_dnn_c10_knife_10_n03041632_379.JPEG
alexnet,1,650,NaN,chair,knife,c10,0650_con_dnn_c10_knife_10_n03041632_30666.JPEG
alexnet,1,651,NaN,clock,keyboard,c10,0651_con_dnn_c10_keyboard_10_n03085013_22597.JPEG
alexnet,1,652,NaN,bottle,keyboard,c10,0652_con_dnn_c10_keyboard_10_n04505470_4887.JPEG
alexnet,1,653,NaN,keyboard,keyboard,c10,0653_con_dnn_c10_keyboard_10_n03085013_6978.JPEG
alexnet,1,654,NaN,keyboard,keyboard,c10,0654_con_dnn_c10_keyboard_10_n03085013_20674.JPEG
alexnet,1,655,NaN,bird,keyboard,c10,0655_con_dnn_c10_keyboard_10_n03085013_15162.JPEG
alexnet,1,656,NaN,bottle,keyboard,c10,0656_con_dnn_c10_keyboard_10_n04505470_8782.JPEG
alexnet,1,657,NaN,clock,keyboard,c10,0657_con_dnn_c10_keyboard_10_n03085013_6986.JPEG
alexnet,1,658,NaN,keyboard,keyboard,c10,0658_con_dnn_c10_keyboard_10_n03085013_24159.JPEG
alexnet,1,659,NaN,keyboard,keyboard,c10,0659_con_dnn_c10_keyboard_10_n03085013_14844.JPEG
alexnet,1,660,NaN,bottle,keyboard,c10,0660_con_dnn_c10_keyboard_10_n03085013_13281.JPEG
alexnet,1,661,NaN,boat,elephant,c10,0661_con_dnn_c10_elephant_10_n02504013_2648.JPEG
alexnet,1,662,NaN,dog,elephant,c10,0662_con_dnn_c10_elephant_10_n02504013_6127.JPEG
alexnet,1,663,NaN,bottle,elephant,c10,0663_con_dnn_c10_elephant_10_n02504458_2317.JPEG
alexnet,1,664,NaN,bear,elephant,c10,0664_con_dnn_c10_elephant_10_n02504013_782.JPEG
alexnet,1,665,NaN,dog,elephant,c10,0665_con_dnn_c10_elephant_10_n02504458_611.JPEG
alexnet,1,666,NaN,boat,elephant,c10,0666_con_dnn_c10_elephant_10_n02504458_1626.JPEG
alexnet,1,667,NaN,bear,elephant,c10,0667_con_dnn_c10_elephant_10_n02504013_870.JPEG
alexnet,1,668,NaN,bear,elephant,c10,0668_con_dnn_c10_elephant_10_n02504458_10332.JPEG
alexnet,1,669,NaN,bird,elephant,c10,0669_con_dnn_c10_elephant_10_n02504013_4560.JPEG
alexnet,1,670,NaN,boat,elephant,c10,0670_con_dnn_c10_elephant_10_n02504013_645.JPEG
alexnet,1,671,NaN,bicycle,bicycle,c10,0671_con_dnn_c10_bicycle_10_n03792782_8176.JPEG
alexnet,1,672,NaN,chair,bicycle,c10,0672_con_dnn_c10_bicycle_10_n02835271_13213.JPEG
alexnet,1,673,NaN,bottle,bicycle,c10,0673_con_dnn_c10_bicycle_10_n03792782_296.JPEG
alexnet,1,674,NaN,bottle,bicycle,c10,0674_con_dnn_c10_bicycle_10_n02835271_13729.JPEG
alexnet,1,675,NaN,bottle,bicycle,c10,0675_con_dnn_c10_bicycle_10_n02835271_15057.JPEG
alexnet,1,676,NaN,bottle,bicycle,c10,0676_con_dnn_c10_bicycle_10_n02835271_7570.JPEG
alexnet,1,677,NaN,clock,bicycle,c10,0677_con_dnn_c10_bicycle_10_n03792782_5160.JPEG
alexnet,1,678,NaN,bicycle,bicycle,c10,0678_con_dnn_c10_bicycle_10_n03792782_13140.JPEG
alexnet,1,679,NaN,bottle,bicycle,c10,0679_con_dnn_c10_bicycle_10_n02835271_2580.JPEG
alexnet,1,680,NaN,bear,bicycle,c10,0680_con_dnn_c10_bicycle_10_n02835271_1686.JPEG
alexnet,1,681,NaN,airplane,airplane,c10,0681_con_dnn_c10_airplane_10_n02690373_5712.JPEG
alexnet,1,682,NaN,airplane,airplane,c10,0682_con_dnn_c10_airplane_10_n02690373_5565.JPEG
alexnet,1,683,NaN,bird,airplane,c10,0683_con_dnn_c10_airplane_10_n02690373_1087.JPEG
alexnet,1,684,NaN,airplane,airplane,c10,0684_con_dnn_c10_airplane_10_n02690373_9427.JPEG
alexnet,1,685,NaN,boat,airplane,c10,0685_con_dnn_c10_airplane_10_n02690373_10203.JPEG
alexnet,1,686,NaN,airplane,airplane,c10,0686_con_dnn_c10_airplane_10_n02690373_3561.JPEG
alexnet,1,687,NaN,airplane,airplane,c10,0687_con_dnn_c10_airplane_10_n02690373_6195.JPEG
alexnet,1,688,NaN,boat,airplane,c10,0688_con_dnn_c10_airplane_10_n02690373_845.JPEG
alexnet,1,689,NaN,airplane,airplane,c10,0689_con_dnn_c10_airplane_10_n02690373_6138.JPEG
alexnet,1,690,NaN,airplane,airplane,c10,0690_con_dnn_c10_airplane_10_n02690373_3064.JPEG
alexnet,1,691,NaN,bottle,clock,c10,0691_con_dnn_c10_clock_10_n04548280_5734.JPEG
alexnet,1,692,NaN,boat,clock,c10,0692_con_dnn_c10_clock_10_n04548280_5074.JPEG
alexnet,1,693,NaN,clock,clock,c10,0693_con_dnn_c10_clock_10_n03196217_7431.JPEG
alexnet,1,694,NaN,clock,clock,c10,0694_con_dnn_c10_clock_10_n04548280_2472.JPEG
alexnet,1,695,NaN,boat,clock,c10,0695_con_dnn_c10_clock_10_n04548280_14661.JPEG
alexnet,1,696,NaN,clock,clock,c10,0696_con_dnn_c10_clock_10_n03196217_4718.JPEG
alexnet,1,697,NaN,bottle,clock,c10,0697_con_dnn_c10_clock_10_n04548280_7951.JPEG
alexnet,1,698,NaN,bottle,clock,c10,0698_con_dnn_c10_clock_10_n03196217_8509.JPEG
alexnet,1,699,NaN,boat,clock,c10,0699_con_dnn_c10_clock_10_n04548280_3997.JPEG
alexnet,1,700,NaN,bottle,clock,c10,0700_con_dnn_c10_clock_10_n04548280_4872.JPEG
alexnet,1,701,NaN,boat,oven,c10,0701_con_dnn_c10_oven_10_n04111531_1230.JPEG
alexnet,1,702,NaN,bear,oven,c10,0702_con_dnn_c10_oven_10_n04111531_7923.JPEG
alexnet,1,703,NaN,boat,oven,c10,0703_con_dnn_c10_oven_10_n04111531_13644.JPEG
alexnet,1,704,NaN,bear,oven,c10,0704_con_dnn_c10_oven_10_n04111531_7910.JPEG
alexnet,1,705,NaN,bird,oven,c10,0705_con_dnn_c10_oven_10_n04111531_5582.JPEG
alexnet,1,706,NaN,bear,oven,c10,0706_con_dnn_c10_oven_10_n04111531_3353.JPEG
alexnet,1,707,NaN,dog,oven,c10,0707_con_dnn_c10_oven_10_n04111531_6695.JPEG
alexnet,1,708,NaN,dog,oven,c10,0708_con_dnn_c10_oven_10_n04111531_3126.JPEG
alexnet,1,709,NaN,bottle,oven,c10,0709_con_dnn_c10_oven_10_n04111531_5643.JPEG
alexnet,1,710,NaN,bottle,oven,c10,0710_con_dnn_c10_oven_10_n04111531_7097.JPEG
alexnet,1,711,NaN,chair,chair,c10,0711_con_dnn_c10_chair_10_n02791124_4400.JPEG
alexnet,1,712,NaN,chair,chair,c10,0712_con_dnn_c10_chair_10_n04429376_1935.JPEG
alexnet,1,713,NaN,bottle,chair,c10,0713_con_dnn_c10_chair_10_n04429376_12556.JPEG
alexnet,1,714,NaN,chair,chair,c10,0714_con_dnn_c10_chair_10_n04099969_7274.JPEG
alexnet,1,715,NaN,bottle,chair,c10,0715_con_dnn_c10_chair_10_n04429376_8095.JPEG
alexnet,1,716,NaN,chair,chair,c10,0716_con_dnn_c10_chair_10_n04429376_3891.JPEG
alexnet,1,717,NaN,chair,chair,c10,0717_con_dnn_c10_chair_10_n02791124_10723.JPEG
alexnet,1,718,NaN,chair,chair,c10,0718_con_dnn_c10_chair_10_n03376595_7568.JPEG
alexnet,1,719,NaN,bottle,chair,c10,0719_con_dnn_c10_chair_10_n03376595_5876.JPEG
alexnet,1,720,NaN,bottle,chair,c10,0720_con_dnn_c10_chair_10_n04429376_24535.JPEG
alexnet,1,721,NaN,cat,bear,c10,0721_con_dnn_c10_bear_10_n02134084_4915.JPEG
alexnet,1,722,NaN,bird,bear,c10,0722_con_dnn_c10_bear_10_n02134084_6887.JPEG
alexnet,1,723,NaN,bear,bear,c10,0723_con_dnn_c10_bear_10_n02132136_16173.JPEG
alexnet,1,724,NaN,dog,bear,c10,0724_con_dnn_c10_bear_10_n02132136_4123.JPEG
alexnet,1,725,NaN,airplane,bear,c10,0725_con_dnn_c10_bear_10_n02134084_6271.JPEG
alexnet,1,726,NaN,bear,bear,c10,0726_con_dnn_c10_bear_10_n02134084_5275.JPEG
alexnet,1,727,NaN,bear,bear,c10,0727_con_dnn_c10_bear_10_n02132136_5094.JPEG
alexnet,1,728,NaN,bear,bear,c10,0728_con_dnn_c10_bear_10_n02133161_412.JPEG
alexnet,1,729,NaN,bear,bear,c10,0729_con_dnn_c10_bear_10_n02134084_3359.JPEG
alexnet,1,730,NaN,bottle,bear,c10,0730_con_dnn_c10_bear_10_n02134084_9437.JPEG
alexnet,1,731,NaN,boat,boat,c10,0731_con_dnn_c10_boat_10_n04273569_13850.JPEG
alexnet,1,732,NaN,boat,boat,c10,0732_con_dnn_c10_boat_10_n02951358_12625.JPEG
alexnet,1,733,NaN,bottle,boat,c10,0733_con_dnn_c10_boat_10_n03662601_13754.JPEG
alexnet,1,734,NaN,boat,boat,c10,0734_con_dnn_c10_boat_10_n02951358_35213.JPEG
alexnet,1,735,NaN,airplane,boat,c10,0735_con_dnn_c10_boat_10_n03662601_23469.JPEG
alexnet,1,736,NaN,boat,boat,c10,0736_con_dnn_c10_boat_10_n04612504_30617.JPEG
alexnet,1,737,NaN,bear,boat,c10,0737_con_dnn_c10_boat_10_n02951358_30167.JPEG
alexnet,1,738,NaN,boat,boat,c10,0738_con_dnn_c10_boat_10_n02951358_715.JPEG
alexnet,1,739,NaN,bear,boat,c10,0739_con_dnn_c10_boat_10_n03344393_6703.JPEG
alexnet,1,740,NaN,airplane,boat,c10,0740_con_dnn_c10_boat_10_n04612504_582.JPEG
alexnet,1,741,NaN,bear,cat,c10,0741_con_dnn_c10_cat_10_n02123045_5392.JPEG
alexnet,1,742,NaN,bear,cat,c10,0742_con_dnn_c10_cat_10_n02123159_1436.JPEG
alexnet,1,743,NaN,boat,cat,c10,0743_con_dnn_c10_cat_10_n02125311_25889.JPEG
alexnet,1,744,NaN,bird,cat,c10,0744_con_dnn_c10_cat_10_n02123045_21147.JPEG
alexnet,1,745,NaN,bird,cat,c10,0745_con_dnn_c10_cat_10_n02124075_11176.JPEG
alexnet,1,746,NaN,keyboard,cat,c10,0746_con_dnn_c10_cat_10_n02123159_6131.JPEG
alexnet,1,747,NaN,bird,cat,c10,0747_con_dnn_c10_cat_10_n02125311_46308.JPEG
alexnet,1,748,NaN,bear,cat,c10,0748_con_dnn_c10_cat_10_n02123045_6132.JPEG
alexnet,1,749,NaN,cat,cat,c10,0749_con_dnn_c10_cat_10_n02123597_1034.JPEG
alexnet,1,750,NaN,dog,cat,c10,0750_con_dnn_c10_cat_10_n02123394_6496.JPEG
alexnet,1,751,NaN,bottle,bottle,c10,0751_con_dnn_c10_bottle_10_n03983396_3027.JPEG
alexnet,1,752,NaN,bottle,bottle,c10,0752_con_dnn_c10_bottle_10_n03937543_9363.JPEG
alexnet,1,753,NaN,bottle,bottle,c10,0753_con_dnn_c10_bottle_10_n02823428_4056.JPEG
alexnet,1,754,NaN,bottle,bottle,c10,0754_con_dnn_c10_bottle_10_n03983396_2034.JPEG
alexnet,1,755,NaN,bottle,bottle,c10,0755_con_dnn_c10_bottle_10_n02823428_5617.JPEG
alexnet,1,756,NaN,bottle,bottle,c10,0756_con_dnn_c10_bottle_10_n03983396_8281.JPEG
alexnet,1,757,NaN,bottle,bottle,c10,0757_con_dnn_c10_bottle_10_n03937543_5323.JPEG
alexnet,1,758,NaN,bottle,bottle,c10,0758_con_dnn_c10_bottle_10_n04557648_5195.JPEG
alexnet,1,759,NaN,bottle,bottle,c10,0759_con_dnn_c10_bottle_10_n03983396_10021.JPEG
alexnet,1,760,NaN,bottle,bottle,c10,0760_con_dnn_c10_bottle_10_n03983396_8294.JPEG
alexnet,1,761,NaN,oven,truck,c10,0761_con_dnn_c10_truck_10_n04467665_63788.JPEG
alexnet,1,762,NaN,boat,truck,c10,0762_con_dnn_c10_truck_10_n03417042_1631.JPEG
alexnet,1,763,NaN,boat,truck,c10,0763_con_dnn_c10_truck_10_n04467665_58500.JPEG
alexnet,1,764,NaN,bear,truck,c10,0764_con_dnn_c10_truck_10_n03796401_645.JPEG
alexnet,1,765,NaN,truck,truck,c10,0765_con_dnn_c10_truck_10_n04467665_749.JPEG
alexnet,1,766,NaN,truck,truck,c10,0766_con_dnn_c10_truck_10_n03796401_129.JPEG
alexnet,1,767,NaN,chair,truck,c10,0767_con_dnn_c10_truck_10_n03417042_9693.JPEG
alexnet,1,768,NaN,bottle,truck,c10,0768_con_dnn_c10_truck_10_n03417042_2812.JPEG
alexnet,1,769,NaN,truck,truck,c10,0769_con_dnn_c10_truck_10_n04467665_23389.JPEG
alexnet,1,770,NaN,truck,truck,c10,0770_con_dnn_c10_truck_10_n04467665_2.JPEG
alexnet,1,771,NaN,bottle,car,c10,0771_con_dnn_c10_car_10_n04285008_15503.JPEG
alexnet,1,772,NaN,car,car,c10,0772_con_dnn_c10_car_10_n03100240_2719.JPEG
alexnet,1,773,NaN,bottle,car,c10,0773_con_dnn_c10_car_10_n03100240_8908.JPEG
alexnet,1,774,NaN,bottle,car,c10,0774_con_dnn_c10_car_10_n03100240_8265.JPEG
alexnet,1,775,NaN,bottle,car,c10,0775_con_dnn_c10_car_10_n04285008_2730.JPEG
alexnet,1,776,NaN,bottle,car,c10,0776_con_dnn_c10_car_10_n03100240_830.JPEG
alexnet,1,777,NaN,bottle,car,c10,0777_con_dnn_c10_car_10_n03100240_7755.JPEG
alexnet,1,778,NaN,clock,car,c10,0778_con_dnn_c10_car_10_n04285008_4551.JPEG
alexnet,1,779,NaN,airplane,car,c10,0779_con_dnn_c10_car_10_n02814533_22822.JPEG
alexnet,1,780,NaN,truck,car,c10,0780_con_dnn_c10_car_10_n02814533_81438.JPEG
alexnet,1,781,NaN,bird,bird,c10,0781_con_dnn_c10_bird_10_n01819313_4952.JPEG
alexnet,1,782,NaN,boat,bird,c10,0782_con_dnn_c10_bird_10_n02033041_9581.JPEG
alexnet,1,783,NaN,bird,bird,c10,0783_con_dnn_c10_bird_10_n01824575_1352.JPEG
alexnet,1,784,NaN,bottle,bird,c10,0784_con_dnn_c10_bird_10_n01843383_8690.JPEG
alexnet,1,785,NaN,dog,bird,c10,0785_con_dnn_c10_bird_10_n02006656_1635.JPEG
alexnet,1,786,NaN,bird,bird,c10,0786_con_dnn_c10_bird_10_n02018795_7227.JPEG
alexnet,1,787,NaN,bird,bird,c10,0787_con_dnn_c10_bird_10_n01819313_2448.JPEG
alexnet,1,788,NaN,dog,bird,c10,0788_con_dnn_c10_bird_10_n01537544_6721.JPEG
alexnet,1,789,NaN,bird,bird,c10,0789_con_dnn_c10_bird_10_n01616318_51864.JPEG
alexnet,1,790,NaN,bear,bird,c10,0790_con_dnn_c10_bird_10_n02027492_19954.JPEG
alexnet,1,791,NaN,bottle,dog,c10,0791_con_dnn_c10_dog_10_n02091032_12013.JPEG
alexnet,1,792,NaN,dog,dog,c10,0792_con_dnn_c10_dog_10_n02110063_8002.JPEG
alexnet,1,793,NaN,bear,dog,c10,0793_con_dnn_c10_dog_10_n02085936_2693.JPEG
alexnet,1,794,NaN,cat,dog,c10,0794_con_dnn_c10_dog_10_n02087394_35519.JPEG
alexnet,1,795,NaN,bear,dog,c10,0795_con_dnn_c10_dog_10_n02091831_8230.JPEG
alexnet,1,796,NaN,bear,dog,c10,0796_con_dnn_c10_dog_10_n02106030_15836.JPEG
alexnet,1,797,NaN,chair,dog,c10,0797_con_dnn_c10_dog_10_n02093647_4579.JPEG
alexnet,1,798,NaN,bear,dog,c10,0798_con_dnn_c10_dog_10_n02088094_3534.JPEG
alexnet,1,799,NaN,boat,dog,c10,0799_con_dnn_c10_dog_10_n02110806_3903.JPEG
alexnet,1,800,NaN,dog,dog,c10,0800_con_dnn_c10_dog_10_n02112018_3861.JPEG
alexnet,1,801,NaN,bear,knife,c05,0801_con_dnn_c05_knife_10_n03041632_4443.JPEG
alexnet,1,802,NaN,boat,knife,c05,0802_con_dnn_c05_knife_10_n03041632_45775.JPEG
alexnet,1,803,NaN,bird,knife,c05,0803_con_dnn_c05_knife_10_n03041632_31932.JPEG
alexnet,1,804,NaN,knife,knife,c05,0804_con_dnn_c05_knife_10_n03041632_37949.JPEG
alexnet,1,805,NaN,bear,knife,c05,0805_con_dnn_c05_knife_10_n03041632_8563.JPEG
alexnet,1,806,NaN,bear,knife,c05,0806_con_dnn_c05_knife_10_n03041632_29338.JPEG
alexnet,1,807,NaN,boat,knife,c05,0807_con_dnn_c05_knife_10_n03041632_11741.JPEG
alexnet,1,808,NaN,boat,knife,c05,0808_con_dnn_c05_knife_10_n03041632_12537.JPEG
alexnet,1,809,NaN,bear,knife,c05,0809_con_dnn_c05_knife_10_n03041632_26314.JPEG
alexnet,1,810,NaN,bear,knife,c05,0810_con_dnn_c05_knife_10_n03041632_40450.JPEG
alexnet,1,811,NaN,bird,keyboard,c05,0811_con_dnn_c05_keyboard_10_n03085013_12399.JPEG
alexnet,1,812,NaN,bear,keyboard,c05,0812_con_dnn_c05_keyboard_10_n03085013_23749.JPEG
alexnet,1,813,NaN,bear,keyboard,c05,0813_con_dnn_c05_keyboard_10_n04505470_4452.JPEG
alexnet,1,814,NaN,knife,keyboard,c05,0814_con_dnn_c05_keyboard_10_n03085013_22489.JPEG
alexnet,1,815,NaN,keyboard,keyboard,c05,0815_con_dnn_c05_keyboard_10_n04505470_5009.JPEG
alexnet,1,816,NaN,bird,keyboard,c05,0816_con_dnn_c05_keyboard_10_n03085013_24504.JPEG
alexnet,1,817,NaN,bottle,keyboard,c05,0817_con_dnn_c05_keyboard_10_n03085013_20483.JPEG
alexnet,1,818,NaN,keyboard,keyboard,c05,0818_con_dnn_c05_keyboard_10_n04505470_4822.JPEG
alexnet,1,819,NaN,dog,keyboard,c05,0819_con_dnn_c05_keyboard_10_n04505470_4978.JPEG
alexnet,1,820,NaN,keyboard,keyboard,c05,0820_con_dnn_c05_keyboard_10_n04505470_4651.JPEG
alexnet,1,821,NaN,bear,elephant,c05,0821_con_dnn_c05_elephant_10_n02504458_5697.JPEG
alexnet,1,822,NaN,bird,elephant,c05,0822_con_dnn_c05_elephant_10_n02504458_1312.JPEG
alexnet,1,823,NaN,bear,elephant,c05,0823_con_dnn_c05_elephant_10_n02504458_12374.JPEG
alexnet,1,824,NaN,bear,elephant,c05,0824_con_dnn_c05_elephant_10_n02504013_3295.JPEG
alexnet,1,825,NaN,bear,elephant,c05,0825_con_dnn_c05_elephant_10_n02504013_3719.JPEG
alexnet,1,826,NaN,bear,elephant,c05,0826_con_dnn_c05_elephant_10_n02504458_6524.JPEG
alexnet,1,827,NaN,boat,elephant,c05,0827_con_dnn_c05_elephant_10_n02504458_3094.JPEG
alexnet,1,828,NaN,bird,elephant,c05,0828_con_dnn_c05_elephant_10_n02504458_2086.JPEG
alexnet,1,829,NaN,bear,elephant,c05,0829_con_dnn_c05_elephant_10_n02504458_373.JPEG
alexnet,1,830,NaN,bear,elephant,c05,0830_con_dnn_c05_elephant_10_n02504013_4536.JPEG
alexnet,1,831,NaN,boat,bicycle,c05,0831_con_dnn_c05_bicycle_10_n02835271_341.JPEG
alexnet,1,832,NaN,boat,bicycle,c05,0832_con_dnn_c05_bicycle_10_n02835271_21989.JPEG
alexnet,1,833,NaN,bird,bicycle,c05,0833_con_dnn_c05_bicycle_10_n02835271_5908.JPEG
alexnet,1,834,NaN,boat,bicycle,c05,0834_con_dnn_c05_bicycle_10_n02835271_4341.JPEG
alexnet,1,835,NaN,bird,bicycle,c05,0835_con_dnn_c05_bicycle_10_n02835271_12843.JPEG
alexnet,1,836,NaN,boat,bicycle,c05,0836_con_dnn_c05_bicycle_10_n03792782_3613.JPEG
alexnet,1,837,NaN,bird,bicycle,c05,0837_con_dnn_c05_bicycle_10_n03792782_6192.JPEG
alexnet,1,838,NaN,bear,bicycle,c05,0838_con_dnn_c05_bicycle_10_n03792782_4213.JPEG
alexnet,1,839,NaN,bear,bicycle,c05,0839_con_dnn_c05_bicycle_10_n03792782_16558.JPEG
alexnet,1,840,NaN,bottle,bicycle,c05,0840_con_dnn_c05_bicycle_10_n03792782_2628.JPEG
alexnet,1,841,NaN,airplane,airplane,c05,0841_con_dnn_c05_airplane_10_n02690373_3750.JPEG
alexnet,1,842,NaN,airplane,airplane,c05,0842_con_dnn_c05_airplane_10_n02690373_911.JPEG
alexnet,1,843,NaN,bird,airplane,c05,0843_con_dnn_c05_airplane_10_n02690373_7698.JPEG
alexnet,1,844,NaN,bear,airplane,c05,0844_con_dnn_c05_airplane_10_n02690373_5587.JPEG
alexnet,1,845,NaN,bear,airplane,c05,0845_con_dnn_c05_airplane_10_n02690373_9128.JPEG
alexnet,1,846,NaN,bear,airplane,c05,0846_con_dnn_c05_airplane_10_n02690373_1291.JPEG
alexnet,1,847,NaN,bear,airplane,c05,0847_con_dnn_c05_airplane_10_n02690373_6549.JPEG
alexnet,1,848,NaN,bear,airplane,c05,0848_con_dnn_c05_airplane_10_n02690373_4452.JPEG
alexnet,1,849,NaN,airplane,airplane,c05,0849_con_dnn_c05_airplane_10_n02690373_2025.JPEG
alexnet,1,850,NaN,airplane,airplane,c05,0850_con_dnn_c05_airplane_10_n02690373_5838.JPEG
alexnet,1,851,NaN,bottle,clock,c05,0851_con_dnn_c05_clock_10_n03196217_7324.JPEG
alexnet,1,852,NaN,clock,clock,c05,0852_con_dnn_c05_clock_10_n02708093_3624.JPEG
alexnet,1,853,NaN,bottle,clock,c05,0853_con_dnn_c05_clock_10_n04548280_4995.JPEG
alexnet,1,854,NaN,clock,clock,c05,0854_con_dnn_c05_clock_10_n04548280_1354.JPEG
alexnet,1,855,NaN,bottle,clock,c05,0855_con_dnn_c05_clock_10_n04548280_1896.JPEG
alexnet,1,856,NaN,bottle,clock,c05,0856_con_dnn_c05_clock_10_n03196217_13062.JPEG
alexnet,1,857,NaN,clock,clock,c05,0857_con_dnn_c05_clock_10_n04548280_5224.JPEG
alexnet,1,858,NaN,clock,clock,c05,0858_con_dnn_c05_clock_10_n04548280_4293.JPEG
alexnet,1,859,NaN,bear,clock,c05,0859_con_dnn_c05_clock_10_n02708093_3525.JPEG
alexnet,1,860,NaN,bottle,clock,c05,0860_con_dnn_c05_clock_10_n04548280_406.JPEG
alexnet,1,861,NaN,boat,oven,c05,0861_con_dnn_c05_oven_10_n04111531_14280.JPEG
alexnet,1,862,NaN,bottle,oven,c05,0862_con_dnn_c05_oven_10_n04111531_16795.JPEG
alexnet,1,863,NaN,airplane,oven,c05,0863_con_dnn_c05_oven_10_n04111531_10290.JPEG
alexnet,1,864,NaN,bottle,oven,c05,0864_con_dnn_c05_oven_10_n04111531_5950.JPEG
alexnet,1,865,NaN,airplane,oven,c05,0865_con_dnn_c05_oven_10_n04111531_136.JPEG
alexnet,1,866,NaN,dog,oven,c05,0866_con_dnn_c05_oven_10_n04111531_7878.JPEG
alexnet,1,867,NaN,bird,oven,c05,0867_con_dnn_c05_oven_10_n04111531_22715.JPEG
alexnet,1,868,NaN,boat,oven,c05,0868_con_dnn_c05_oven_10_n04111531_15290.JPEG
alexnet,1,869,NaN,boat,oven,c05,0869_con_dnn_c05_oven_10_n04111531_7340.JPEG
alexnet,1,870,NaN,bear,oven,c05,0870_con_dnn_c05_oven_10_n04111531_10802.JPEG
alexnet,1,871,NaN,bottle,chair,c05,0871_con_dnn_c05_chair_10_n02791124_4876.JPEG
alexnet,1,872,NaN,chair,chair,c05,0872_con_dnn_c05_chair_10_n04099969_5524.JPEG
alexnet,1,873,NaN,boat,chair,c05,0873_con_dnn_c05_chair_10_n02791124_6189.JPEG
alexnet,1,874,NaN,bird,chair,c05,0874_con_dnn_c05_chair_10_n04099969_9201.JPEG
alexnet,1,875,NaN,chair,chair,c05,0875_con_dnn_c05_chair_10_n02791124_3531.JPEG
alexnet,1,876,NaN,chair,chair,c05,0876_con_dnn_c05_chair_10_n03376595_3485.JPEG
alexnet,1,877,NaN,bird,chair,c05,0877_con_dnn_c05_chair_10_n02791124_3395.JPEG
alexnet,1,878,NaN,boat,chair,c05,0878_con_dnn_c05_chair_10_n02791124_16242.JPEG
alexnet,1,879,NaN,chair,chair,c05,0879_con_dnn_c05_chair_10_n03376595_10095.JPEG
alexnet,1,880,NaN,chair,chair,c05,0880_con_dnn_c05_chair_10_n04099969_14127.JPEG
alexnet,1,881,NaN,bear,bear,c05,0881_con_dnn_c05_bear_10_n02132136_6856.JPEG
alexnet,1,882,NaN,bear,bear,c05,0882_con_dnn_c05_bear_10_n02133161_522.JPEG
alexnet,1,883,NaN,bear,bear,c05,0883_con_dnn_c05_bear_10_n02134418_2773.JPEG
alexnet,1,884,NaN,bear,bear,c05,0884_con_dnn_c05_bear_10_n02134418_1105.JPEG
alexnet,1,885,NaN,bear,bear,c05,0885_con_dnn_c05_bear_10_n02134084_32585.JPEG
alexnet,1,886,NaN,bird,bear,c05,0886_con_dnn_c05_bear_10_n02132136_7995.JPEG
alexnet,1,887,NaN,bird,bear,c05,0887_con_dnn_c05_bear_10_n02132136_31881.JPEG
alexnet,1,888,NaN,bear,bear,c05,0888_con_dnn_c05_bear_10_n02134418_4539.JPEG
alexnet,1,889,NaN,bear,bear,c05,0889_con_dnn_c05_bear_10_n02134418_2406.JPEG
alexnet,1,890,NaN,bird,bear,c05,0890_con_dnn_c05_bear_10_n02134418_3396.JPEG
alexnet,1,891,NaN,airplane,boat,c05,0891_con_dnn_c05_boat_10_n02951358_32385.JPEG
alexnet,1,892,NaN,boat,boat,c05,0892_con_dnn_c05_boat_10_n03344393_8101.JPEG
alexnet,1,893,NaN,bear,boat,c05,0893_con_dnn_c05_boat_10_n03344393_4213.JPEG
alexnet,1,894,NaN,boat,boat,c05,0894_con_dnn_c05_boat_10_n04273569_219.JPEG
alexnet,1,895,NaN,boat,boat,c05,0895_con_dnn_c05_boat_10_n02951358_35173.JPEG
alexnet,1,896,NaN,boat,boat,c05,0896_con_dnn_c05_boat_10_n03662601_26227.JPEG
alexnet,1,897,NaN,bear,boat,c05,0897_con_dnn_c05_boat_10_n04273569_1913.JPEG
alexnet,1,898,NaN,bear,boat,c05,0898_con_dnn_c05_boat_10_n04612504_20943.JPEG
alexnet,1,899,NaN,airplane,boat,c05,0899_con_dnn_c05_boat_10_n04273569_13401.JPEG
alexnet,1,900,NaN,bear,boat,c05,0900_con_dnn_c05_boat_10_n03662601_10923.JPEG
alexnet,1,901,NaN,bear,cat,c05,0901_con_dnn_c05_cat_10_n02123394_1024.JPEG
alexnet,1,902,NaN,airplane,cat,c05,0902_con_dnn_c05_cat_10_n02123597_1664.JPEG
alexnet,1,903,NaN,bear,cat,c05,0903_con_dnn_c05_cat_10_n02123159_2482.JPEG
alexnet,1,904,NaN,bear,cat,c05,0904_con_dnn_c05_cat_10_n02124075_4538.JPEG
alexnet,1,905,NaN,bird,cat,c05,0905_con_dnn_c05_cat_10_n02123045_14135.JPEG
alexnet,1,906,NaN,bear,cat,c05,0906_con_dnn_c05_cat_10_n02124075_7423.JPEG
alexnet,1,907,NaN,bird,cat,c05,0907_con_dnn_c05_cat_10_n02123394_3210.JPEG
alexnet,1,908,NaN,bird,cat,c05,0908_con_dnn_c05_cat_10_n02123394_3606.JPEG
alexnet,1,909,NaN,bird,cat,c05,0909_con_dnn_c05_cat_10_n02123159_889.JPEG
alexnet,1,910,NaN,bottle,cat,c05,0910_con_dnn_c05_cat_10_n02123597_11940.JPEG
alexnet,1,911,NaN,bear,bottle,c05,0911_con_dnn_c05_bottle_10_n04560804_24458.JPEG
alexnet,1,912,NaN,bottle,bottle,c05,0912_con_dnn_c05_bottle_10_n03937543_2668.JPEG
alexnet,1,913,NaN,airplane,bottle,c05,0913_con_dnn_c05_bottle_10_n03937543_9541.JPEG
alexnet,1,914,NaN,bear,bottle,c05,0914_con_dnn_c05_bottle_10_n02823428_8553.JPEG
alexnet,1,915,NaN,airplane,bottle,c05,0915_con_dnn_c05_bottle_10_n03937543_4782.JPEG
alexnet,1,916,NaN,bear,bottle,c05,0916_con_dnn_c05_bottle_10_n04560804_15333.JPEG
alexnet,1,917,NaN,bear,bottle,c05,0917_con_dnn_c05_bottle_10_n02823428_1133.JPEG
alexnet,1,918,NaN,bear,bottle,c05,0918_con_dnn_c05_bottle_10_n03983396_375.JPEG
alexnet,1,919,NaN,bear,bottle,c05,0919_con_dnn_c05_bottle_10_n03983396_2076.JPEG
alexnet,1,920,NaN,bottle,bottle,c05,0920_con_dnn_c05_bottle_10_n04557648_8989.JPEG
alexnet,1,921,NaN,truck,truck,c05,0921_con_dnn_c05_truck_10_n03417042_12019.JPEG
alexnet,1,922,NaN,boat,truck,c05,0922_con_dnn_c05_truck_10_n04467665_345.JPEG
alexnet,1,923,NaN,boat,truck,c05,0923_con_dnn_c05_truck_10_n03796401_26801.JPEG
alexnet,1,924,NaN,bear,truck,c05,0924_con_dnn_c05_truck_10_n03417042_5750.JPEG
alexnet,1,925,NaN,truck,truck,c05,0925_con_dnn_c05_truck_10_n03417042_13243.JPEG
alexnet,1,926,NaN,truck,truck,c05,0926_con_dnn_c05_truck_10_n04467665_46493.JPEG
alexnet,1,927,NaN,bear,truck,c05,0927_con_dnn_c05_truck_10_n04467665_48.JPEG
alexnet,1,928,NaN,bear,truck,c05,0928_con_dnn_c05_truck_10_n03417042_12486.JPEG
alexnet,1,929,NaN,bear,truck,c05,0929_con_dnn_c05_truck_10_n03417042_10476.JPEG
alexnet,1,930,NaN,boat,truck,c05,0930_con_dnn_c05_truck_10_n03417042_25504.JPEG
alexnet,1,931,NaN,airplane,car,c05,0931_con_dnn_c05_car_10_n03100240_22398.JPEG
alexnet,1,932,NaN,bear,car,c05,0932_con_dnn_c05_car_10_n03100240_5831.JPEG
alexnet,1,933,NaN,bottle,car,c05,0933_con_dnn_c05_car_10_n03100240_2714.JPEG
alexnet,1,934,NaN,bear,car,c05,0934_con_dnn_c05_car_10_n02814533_17776.JPEG
alexnet,1,935,NaN,bear,car,c05,0935_con_dnn_c05_car_10_n03100240_7836.JPEG
alexnet,1,936,NaN,bear,car,c05,0936_con_dnn_c05_car_10_n02814533_9194.JPEG
alexnet,1,937,NaN,bear,car,c05,0937_con_dnn_c05_car_10_n03100240_22236.JPEG
alexnet,1,938,NaN,bear,car,c05,0938_con_dnn_c05_car_10_n02814533_1061.JPEG
alexnet,1,939,NaN,bear,car,c05,0939_con_dnn_c05_car_10_n04285008_6901.JPEG
alexnet,1,940,NaN,bottle,car,c05,0940_con_dnn_c05_car_10_n04285008_11763.JPEG
alexnet,1,941,NaN,bear,bird,c05,0941_con_dnn_c05_bird_10_n01530575_10196.JPEG
alexnet,1,942,NaN,bear,bird,c05,0942_con_dnn_c05_bird_10_n02017213_13184.JPEG
alexnet,1,943,NaN,bear,bird,c05,0943_con_dnn_c05_bird_10_n02009912_7812.JPEG
alexnet,1,944,NaN,bear,bird,c05,0944_con_dnn_c05_bird_10_n02007558_22601.JPEG
alexnet,1,945,NaN,bear,bird,c05,0945_con_dnn_c05_bird_10_n02009912_10027.JPEG
alexnet,1,946,NaN,bird,bird,c05,0946_con_dnn_c05_bird_10_n02018795_3074.JPEG
alexnet,1,947,NaN,bird,bird,c05,0947_con_dnn_c05_bird_10_n01534433_24044.JPEG
alexnet,1,948,NaN,boat,bird,c05,0948_con_dnn_c05_bird_10_n01582220_4390.JPEG
alexnet,1,949,NaN,bear,bird,c05,0949_con_dnn_c05_bird_10_n01855672_4118.JPEG
alexnet,1,950,NaN,boat,bird,c05,0950_con_dnn_c05_bird_10_n02007558_6102.JPEG
alexnet,1,951,NaN,bear,dog,c05,0951_con_dnn_c05_dog_10_n02099712_3854.JPEG
alexnet,1,952,NaN,bird,dog,c05,0952_con_dnn_c05_dog_10_n02099429_3700.JPEG
alexnet,1,953,NaN,bear,dog,c05,0953_con_dnn_c05_dog_10_n02100877_4171.JPEG
alexnet,1,954,NaN,bear,dog,c05,0954_con_dnn_c05_dog_10_n02088094_6241.JPEG
alexnet,1,955,NaN,bear,dog,c05,0955_con_dnn_c05_dog_10_n02110063_5690.JPEG
alexnet,1,956,NaN,bottle,dog,c05,0956_con_dnn_c05_dog_10_n02105251_7882.JPEG
alexnet,1,957,NaN,bear,dog,c05,0957_con_dnn_c05_dog_10_n02091831_1465.JPEG
alexnet,1,958,NaN,bear,dog,c05,0958_con_dnn_c05_dog_10_n02106166_3642.JPEG
alexnet,1,959,NaN,bear,dog,c05,0959_con_dnn_c05_dog_10_n02105056_1408.JPEG
alexnet,1,960,NaN,bear,dog,c05,0960_con_dnn_c05_dog_10_n02100583_356.JPEG
alexnet,1,961,NaN,boat,knife,c03,0961_con_dnn_c03_knife_10_n03041632_4057.JPEG
alexnet,1,962,NaN,bear,knife,c03,0962_con_dnn_c03_knife_10_n03041632_47234.JPEG
alexnet,1,963,NaN,airplane,knife,c03,0963_con_dnn_c03_knife_10_n03041632_89391.JPEG
alexnet,1,964,NaN,bear,knife,c03,0964_con_dnn_c03_knife_10_n03041632_51256.JPEG
alexnet,1,965,NaN,airplane,knife,c03,0965_con_dnn_c03_knife_10_n03041632_21818.JPEG
alexnet,1,966,NaN,bear,knife,c03,0966_con_dnn_c03_knife_10_n03041632_48816.JPEG
alexnet,1,967,NaN,bird,knife,c03,0967_con_dnn_c03_knife_10_n03041632_21425.JPEG
alexnet,1,968,NaN,airplane,knife,c03,0968_con_dnn_c03_knife_10_n03041632_3926.JPEG
alexnet,1,969,NaN,airplane,knife,c03,0969_con_dnn_c03_knife_10_n03041632_22330.JPEG
alexnet,1,970,NaN,airplane,knife,c03,0970_con_dnn_c03_knife_10_n03041632_932.JPEG
alexnet,1,971,NaN,bottle,keyboard,c03,0971_con_dnn_c03_keyboard_10_n03085013_4914.JPEG
alexnet,1,972,NaN,airplane,keyboard,c03,0972_con_dnn_c03_keyboard_10_n03085013_21266.JPEG
alexnet,1,973,NaN,airplane,keyboard,c03,0973_con_dnn_c03_keyboard_10_n03085013_20078.JPEG
alexnet,1,974,NaN,airplane,keyboard,c03,0974_con_dnn_c03_keyboard_10_n03085013_22966.JPEG
alexnet,1,975,NaN,bear,keyboard,c03,0975_con_dnn_c03_keyboard_10_n04505470_4371.JPEG
alexnet,1,976,NaN,bear,keyboard,c03,0976_con_dnn_c03_keyboard_10_n04505470_4702.JPEG
alexnet,1,977,NaN,bear,keyboard,c03,0977_con_dnn_c03_keyboard_10_n04505470_2740.JPEG
alexnet,1,978,NaN,keyboard,keyboard,c03,0978_con_dnn_c03_keyboard_10_n03085013_28686.JPEG
alexnet,1,979,NaN,bear,keyboard,c03,0979_con_dnn_c03_keyboard_10_n03085013_19412.JPEG
alexnet,1,980,NaN,bear,keyboard,c03,0980_con_dnn_c03_keyboard_10_n04505470_1236.JPEG
alexnet,1,981,NaN,bear,elephant,c03,0981_con_dnn_c03_elephant_10_n02504458_3146.JPEG
alexnet,1,982,NaN,bear,elephant,c03,0982_con_dnn_c03_elephant_10_n02504458_13310.JPEG
alexnet,1,983,NaN,bear,elephant,c03,0983_con_dnn_c03_elephant_10_n02504013_10823.JPEG
alexnet,1,984,NaN,bear,elephant,c03,0984_con_dnn_c03_elephant_10_n02504458_651.JPEG
alexnet,1,985,NaN,bear,elephant,c03,0985_con_dnn_c03_elephant_10_n02504458_477.JPEG
alexnet,1,986,NaN,bear,elephant,c03,0986_con_dnn_c03_elephant_10_n02504013_10492.JPEG
alexnet,1,987,NaN,bear,elephant,c03,0987_con_dnn_c03_elephant_10_n02504013_19006.JPEG
alexnet,1,988,NaN,airplane,elephant,c03,0988_con_dnn_c03_elephant_10_n02504013_2065.JPEG
alexnet,1,989,NaN,boat,elephant,c03,0989_con_dnn_c03_elephant_10_n02504013_3634.JPEG
alexnet,1,990,NaN,bear,elephant,c03,0990_con_dnn_c03_elephant_10_n02504013_8565.JPEG
alexnet,1,991,NaN,airplane,bicycle,c03,0991_con_dnn_c03_bicycle_10_n03792782_41097.JPEG
alexnet,1,992,NaN,bear,bicycle,c03,0992_con_dnn_c03_bicycle_10_n02835271_9237.JPEG
alexnet,1,993,NaN,bird,bicycle,c03,0993_con_dnn_c03_bicycle_10_n02835271_3611.JPEG
alexnet,1,994,NaN,bear,bicycle,c03,0994_con_dnn_c03_bicycle_10_n02835271_2333.JPEG
alexnet,1,995,NaN,bird,bicycle,c03,0995_con_dnn_c03_bicycle_10_n03792782_13923.JPEG
alexnet,1,996,NaN,bear,bicycle,c03,0996_con_dnn_c03_bicycle_10_n02835271_10425.JPEG
alexnet,1,997,NaN,bird,bicycle,c03,0997_con_dnn_c03_bicycle_10_n03792782_29100.JPEG
alexnet,1,998,NaN,airplane,bicycle,c03,0998_con_dnn_c03_bicycle_10_n02835271_6137.JPEG
alexnet,1,999,NaN,airplane,bicycle,c03,0999_con_dnn_c03_bicycle_10_n03792782_1041.JPEG
alexnet,1,1000,NaN,bottle,bicycle,c03,1000_con_dnn_c03_bicycle_10_n02835271_327.JPEG
alexnet,1,1001,NaN,airplane,airplane,c03,1001_con_dnn_c03_airplane_10_n02690373_9531.JPEG
alexnet,1,1002,NaN,bear,airplane,c03,1002_con_dnn_c03_airplane_10_n02690373_17011.JPEG
alexnet,1,1003,NaN,airplane,airplane,c03,1003_con_dnn_c03_airplane_10_n02690373_9959.JPEG
alexnet,1,1004,NaN,airplane,airplane,c03,1004_con_dnn_c03_airplane_10_n02690373_9626.JPEG
alexnet,1,1005,NaN,airplane,airplane,c03,1005_con_dnn_c03_airplane_10_n02690373_2967.JPEG
alexnet,1,1006,NaN,airplane,airplane,c03,1006_con_dnn_c03_airplane_10_n02690373_2468.JPEG
alexnet,1,1007,NaN,airplane,airplane,c03,1007_con_dnn_c03_airplane_10_n02690373_1912.JPEG
alexnet,1,1008,NaN,bear,airplane,c03,1008_con_dnn_c03_airplane_10_n02690373_4979.JPEG
alexnet,1,1009,NaN,airplane,airplane,c03,1009_con_dnn_c03_airplane_10_n02690373_19107.JPEG
alexnet,1,1010,NaN,bear,airplane,c03,1010_con_dnn_c03_airplane_10_n02690373_3400.JPEG
alexnet,1,1011,NaN,bird,clock,c03,1011_con_dnn_c03_clock_10_n02708093_1862.JPEG
alexnet,1,1012,NaN,bottle,clock,c03,1012_con_dnn_c03_clock_10_n03196217_9380.JPEG
alexnet,1,1013,NaN,bear,clock,c03,1013_con_dnn_c03_clock_10_n03196217_3104.JPEG
alexnet,1,1014,NaN,clock,clock,c03,1014_con_dnn_c03_clock_10_n04548280_4275.JPEG
alexnet,1,1015,NaN,airplane,clock,c03,1015_con_dnn_c03_clock_10_n02708093_4286.JPEG
alexnet,1,1016,NaN,clock,clock,c03,1016_con_dnn_c03_clock_10_n03196217_1194.JPEG
alexnet,1,1017,NaN,bear,clock,c03,1017_con_dnn_c03_clock_10_n04548280_6802.JPEG
alexnet,1,1018,NaN,bear,clock,c03,1018_con_dnn_c03_clock_10_n02708093_1569.JPEG
alexnet,1,1019,NaN,airplane,clock,c03,1019_con_dnn_c03_clock_10_n02708093_1267.JPEG
alexnet,1,1020,NaN,bear,clock,c03,1020_con_dnn_c03_clock_10_n03196217_2804.JPEG
alexnet,1,1021,NaN,bear,oven,c03,1021_con_dnn_c03_oven_10_n04111531_538.JPEG
alexnet,1,1022,NaN,airplane,oven,c03,1022_con_dnn_c03_oven_10_n04111531_190.JPEG
alexnet,1,1023,NaN,bear,oven,c03,1023_con_dnn_c03_oven_10_n04111531_9688.JPEG
alexnet,1,1024,NaN,bear,oven,c03,1024_con_dnn_c03_oven_10_n04111531_9041.JPEG
alexnet,1,1025,NaN,airplane,oven,c03,1025_con_dnn_c03_oven_10_n04111531_20591.JPEG
alexnet,1,1026,NaN,bear,oven,c03,1026_con_dnn_c03_oven_10_n04111531_11116.JPEG
alexnet,1,1027,NaN,bear,oven,c03,1027_con_dnn_c03_oven_10_n04111531_3575.JPEG
alexnet,1,1028,NaN,bear,oven,c03,1028_con_dnn_c03_oven_10_n04111531_14568.JPEG
alexnet,1,1029,NaN,bear,oven,c03,1029_con_dnn_c03_oven_10_n04111531_8963.JPEG
alexnet,1,1030,NaN,bear,oven,c03,1030_con_dnn_c03_oven_10_n04111531_13820.JPEG
alexnet,1,1031,NaN,bear,chair,c03,1031_con_dnn_c03_chair_10_n04099969_12537.JPEG
alexnet,1,1032,NaN,boat,chair,c03,1032_con_dnn_c03_chair_10_n04429376_19616.JPEG
alexnet,1,1033,NaN,bear,chair,c03,1033_con_dnn_c03_chair_10_n03376595_7017.JPEG
alexnet,1,1034,NaN,bear,chair,c03,1034_con_dnn_c03_chair_10_n02791124_16237.JPEG
alexnet,1,1035,NaN,airplane,chair,c03,1035_con_dnn_c03_chair_10_n03376595_6113.JPEG
alexnet,1,1036,NaN,bird,chair,c03,1036_con_dnn_c03_chair_10_n04099969_9194.JPEG
alexnet,1,1037,NaN,airplane,chair,c03,1037_con_dnn_c03_chair_10_n03376595_10011.JPEG
alexnet,1,1038,NaN,airplane,chair,c03,1038_con_dnn_c03_chair_10_n03376595_4611.JPEG
alexnet,1,1039,NaN,airplane,chair,c03,1039_con_dnn_c03_chair_10_n02791124_9967.JPEG
alexnet,1,1040,NaN,bear,chair,c03,1040_con_dnn_c03_chair_10_n04429376_19103.JPEG
alexnet,1,1041,NaN,airplane,bear,c03,1041_con_dnn_c03_bear_10_n02134418_4850.JPEG
alexnet,1,1042,NaN,airplane,bear,c03,1042_con_dnn_c03_bear_10_n02132136_9975.JPEG
alexnet,1,1043,NaN,bear,bear,c03,1043_con_dnn_c03_bear_10_n02134084_24208.JPEG
alexnet,1,1044,NaN,airplane,bear,c03,1044_con_dnn_c03_bear_10_n02134084_890.JPEG
alexnet,1,1045,NaN,airplane,bear,c03,1045_con_dnn_c03_bear_10_n02134084_9884.JPEG
alexnet,1,1046,NaN,airplane,bear,c03,1046_con_dnn_c03_bear_10_n02133161_12693.JPEG
alexnet,1,1047,NaN,airplane,bear,c03,1047_con_dnn_c03_bear_10_n02133161_1169.JPEG
alexnet,1,1048,NaN,bear,bear,c03,1048_con_dnn_c03_bear_10_n02134418_10576.JPEG
alexnet,1,1049,NaN,bear,bear,c03,1049_con_dnn_c03_bear_10_n02132136_22701.JPEG
alexnet,1,1050,NaN,bear,bear,c03,1050_con_dnn_c03_bear_10_n02134418_460.JPEG
alexnet,1,1051,NaN,bear,boat,c03,1051_con_dnn_c03_boat_10_n03344393_3805.JPEG
alexnet,1,1052,NaN,bear,boat,c03,1052_con_dnn_c03_boat_10_n04612504_199.JPEG
alexnet,1,1053,NaN,bear,boat,c03,1053_con_dnn_c03_boat_10_n03662601_30177.JPEG
alexnet,1,1054,NaN,airplane,boat,c03,1054_con_dnn_c03_boat_10_n03662601_22477.JPEG
alexnet,1,1055,NaN,bear,boat,c03,1055_con_dnn_c03_boat_10_n03344393_9712.JPEG
alexnet,1,1056,NaN,airplane,boat,c03,1056_con_dnn_c03_boat_10_n04273569_1233.JPEG
alexnet,1,1057,NaN,airplane,boat,c03,1057_con_dnn_c03_boat_10_n02951358_29779.JPEG
alexnet,1,1058,NaN,bear,boat,c03,1058_con_dnn_c03_boat_10_n03662601_10541.JPEG
alexnet,1,1059,NaN,bear,boat,c03,1059_con_dnn_c03_boat_10_n02951358_10015.JPEG
alexnet,1,1060,NaN,bear,boat,c03,1060_con_dnn_c03_boat_10_n03662601_34676.JPEG
alexnet,1,1061,NaN,airplane,cat,c03,1061_con_dnn_c03_cat_10_n02123159_2081.JPEG
alexnet,1,1062,NaN,airplane,cat,c03,1062_con_dnn_c03_cat_10_n02123159_7621.JPEG
alexnet,1,1063,NaN,airplane,cat,c03,1063_con_dnn_c03_cat_10_n02124075_7854.JPEG
alexnet,1,1064,NaN,airplane,cat,c03,1064_con_dnn_c03_cat_10_n02124075_2806.JPEG
alexnet,1,1065,NaN,airplane,cat,c03,1065_con_dnn_c03_cat_10_n02123159_189.JPEG
alexnet,1,1066,NaN,airplane,cat,c03,1066_con_dnn_c03_cat_10_n02123045_2694.JPEG
alexnet,1,1067,NaN,airplane,cat,c03,1067_con_dnn_c03_cat_10_n02123394_2169.JPEG
alexnet,1,1068,NaN,airplane,cat,c03,1068_con_dnn_c03_cat_10_n02123159_3311.JPEG
alexnet,1,1069,NaN,bear,cat,c03,1069_con_dnn_c03_cat_10_n02124075_9189.JPEG
alexnet,1,1070,NaN,airplane,cat,c03,1070_con_dnn_c03_cat_10_n02123394_5457.JPEG
alexnet,1,1071,NaN,airplane,bottle,c03,1071_con_dnn_c03_bottle_10_n04557648_4190.JPEG
alexnet,1,1072,NaN,bear,bottle,c03,1072_con_dnn_c03_bottle_10_n04557648_2525.JPEG
alexnet,1,1073,NaN,bear,bottle,c03,1073_con_dnn_c03_bottle_10_n02823428_4245.JPEG
alexnet,1,1074,NaN,bear,bottle,c03,1074_con_dnn_c03_bottle_10_n04557648_9587.JPEG
alexnet,1,1075,NaN,airplane,bottle,c03,1075_con_dnn_c03_bottle_10_n04560804_5445.JPEG
alexnet,1,1076,NaN,airplane,bottle,c03,1076_con_dnn_c03_bottle_10_n02823428_4694.JPEG
alexnet,1,1077,NaN,bottle,bottle,c03,1077_con_dnn_c03_bottle_10_n04591713_7095.JPEG
alexnet,1,1078,NaN,airplane,bottle,c03,1078_con_dnn_c03_bottle_10_n04591713_5505.JPEG
alexnet,1,1079,NaN,bear,bottle,c03,1079_con_dnn_c03_bottle_10_n04560804_14356.JPEG
alexnet,1,1080,NaN,airplane,bottle,c03,1080_con_dnn_c03_bottle_10_n03983396_6073.JPEG
alexnet,1,1081,NaN,bear,truck,c03,1081_con_dnn_c03_truck_10_n03796401_27184.JPEG
alexnet,1,1082,NaN,airplane,truck,c03,1082_con_dnn_c03_truck_10_n03417042_4966.JPEG
alexnet,1,1083,NaN,airplane,truck,c03,1083_con_dnn_c03_truck_10_n03417042_18536.JPEG
alexnet,1,1084,NaN,bear,truck,c03,1084_con_dnn_c03_truck_10_n03796401_7431.JPEG
alexnet,1,1085,NaN,bear,truck,c03,1085_con_dnn_c03_truck_10_n04467665_52595.JPEG
alexnet,1,1086,NaN,bear,truck,c03,1086_con_dnn_c03_truck_10_n03417042_2060.JPEG
alexnet,1,1087,NaN,airplane,truck,c03,1087_con_dnn_c03_truck_10_n03417042_7047.JPEG
alexnet,1,1088,NaN,bear,truck,c03,1088_con_dnn_c03_truck_10_n03796401_857.JPEG
alexnet,1,1089,NaN,truck,truck,c03,1089_con_dnn_c03_truck_10_n04467665_19645.JPEG
alexnet,1,1090,NaN,bear,truck,c03,1090_con_dnn_c03_truck_10_n03417042_28519.JPEG
alexnet,1,1091,NaN,bear,car,c03,1091_con_dnn_c03_car_10_n02814533_4704.JPEG
alexnet,1,1092,NaN,bear,car,c03,1092_con_dnn_c03_car_10_n02814533_10995.JPEG
alexnet,1,1093,NaN,bear,car,c03,1093_con_dnn_c03_car_10_n03100240_5808.JPEG
alexnet,1,1094,NaN,bear,car,c03,1094_con_dnn_c03_car_10_n02814533_95653.JPEG
alexnet,1,1095,NaN,airplane,car,c03,1095_con_dnn_c03_car_10_n02814533_4244.JPEG
alexnet,1,1096,NaN,bear,car,c03,1096_con_dnn_c03_car_10_n03100240_13549.JPEG
alexnet,1,1097,NaN,bear,car,c03,1097_con_dnn_c03_car_10_n03100240_11972.JPEG
alexnet,1,1098,NaN,bear,car,c03,1098_con_dnn_c03_car_10_n02814533_23512.JPEG
alexnet,1,1099,NaN,airplane,car,c03,1099_con_dnn_c03_car_10_n03100240_20584.JPEG
alexnet,1,1100,NaN,bear,car,c03,1100_con_dnn_c03_car_10_n04285008_4878.JPEG
alexnet,1,1101,NaN,airplane,bird,c03,1101_con_dnn_c03_bird_10_n01824575_1693.JPEG
alexnet,1,1102,NaN,airplane,bird,c03,1102_con_dnn_c03_bird_10_n01534433_15056.JPEG
alexnet,1,1103,NaN,airplane,bird,c03,1103_con_dnn_c03_bird_10_n01601694_10349.JPEG
alexnet,1,1104,NaN,bear,bird,c03,1104_con_dnn_c03_bird_10_n01829413_8099.JPEG
alexnet,1,1105,NaN,airplane,bird,c03,1105_con_dnn_c03_bird_10_n01797886_7122.JPEG
alexnet,1,1106,NaN,bear,bird,c03,1106_con_dnn_c03_bird_10_n02009229_4412.JPEG
alexnet,1,1107,NaN,boat,bird,c03,1107_con_dnn_c03_bird_10_n01855672_3920.JPEG
alexnet,1,1108,NaN,airplane,bird,c03,1108_con_dnn_c03_bird_10_n02033041_16462.JPEG
alexnet,1,1109,NaN,bear,bird,c03,1109_con_dnn_c03_bird_10_n01824575_6115.JPEG
alexnet,1,1110,NaN,airplane,bird,c03,1110_con_dnn_c03_bird_10_n01514859_1969.JPEG
alexnet,1,1111,NaN,bear,dog,c03,1111_con_dnn_c03_dog_10_n02091831_11100.JPEG
alexnet,1,1112,NaN,airplane,dog,c03,1112_con_dnn_c03_dog_10_n02095314_3659.JPEG
alexnet,1,1113,NaN,airplane,dog,c03,1113_con_dnn_c03_dog_10_n02107574_5413.JPEG
alexnet,1,1114,NaN,airplane,dog,c03,1114_con_dnn_c03_dog_10_n02095314_5369.JPEG
alexnet,1,1115,NaN,bear,dog,c03,1115_con_dnn_c03_dog_10_n02099601_5534.JPEG
alexnet,1,1116,NaN,bear,dog,c03,1116_con_dnn_c03_dog_10_n02090721_1044.JPEG
alexnet,1,1117,NaN,airplane,dog,c03,1117_con_dnn_c03_dog_10_n02097658_499.JPEG
alexnet,1,1118,NaN,bear,dog,c03,1118_con_dnn_c03_dog_10_n02112350_344.JPEG
alexnet,1,1119,NaN,bird,dog,c03,1119_con_dnn_c03_dog_10_n02108915_5951.JPEG
alexnet,1,1120,NaN,bear,dog,c03,1120_con_dnn_c03_dog_10_n02088364_12802.JPEG
alexnet,1,1121,NaN,airplane,knife,c01,1121_con_dnn_c01_knife_10_n03041632_41310.JPEG
alexnet,1,1122,NaN,airplane,knife,c01,1122_con_dnn_c01_knife_10_n03041632_24950.JPEG
alexnet,1,1123,NaN,bird,knife,c01,1123_con_dnn_c01_knife_10_n03041632_54627.JPEG
alexnet,1,1124,NaN,airplane,knife,c01,1124_con_dnn_c01_knife_10_n03041632_11613.JPEG
alexnet,1,1125,NaN,airplane,knife,c01,1125_con_dnn_c01_knife_10_n03041632_33268.JPEG
alexnet,1,1126,NaN,airplane,knife,c01,1126_con_dnn_c01_knife_10_n03041632_31849.JPEG
alexnet,1,1127,NaN,airplane,knife,c01,1127_con_dnn_c01_knife_10_n03041632_94470.JPEG
alexnet,1,1128,NaN,airplane,knife,c01,1128_con_dnn_c01_knife_10_n03041632_11358.JPEG
alexnet,1,1129,NaN,airplane,knife,c01,1129_con_dnn_c01_knife_10_n03041632_21723.JPEG
alexnet,1,1130,NaN,bird,knife,c01,1130_con_dnn_c01_knife_10_n03041632_11326.JPEG
alexnet,1,1131,NaN,bird,keyboard,c01,1131_con_dnn_c01_keyboard_10_n03085013_24026.JPEG
alexnet,1,1132,NaN,airplane,keyboard,c01,1132_con_dnn_c01_keyboard_10_n04505470_1728.JPEG
alexnet,1,1133,NaN,airplane,keyboard,c01,1133_con_dnn_c01_keyboard_10_n03085013_4298.JPEG
alexnet,1,1134,NaN,airplane,keyboard,c01,1134_con_dnn_c01_keyboard_10_n03085013_24122.JPEG
alexnet,1,1135,NaN,airplane,keyboard,c01,1135_con_dnn_c01_keyboard_10_n03085013_6927.JPEG
alexnet,1,1136,NaN,airplane,keyboard,c01,1136_con_dnn_c01_keyboard_10_n04505470_279.JPEG
alexnet,1,1137,NaN,airplane,keyboard,c01,1137_con_dnn_c01_keyboard_10_n03085013_22175.JPEG
alexnet,1,1138,NaN,airplane,keyboard,c01,1138_con_dnn_c01_keyboard_10_n03085013_24538.JPEG
alexnet,1,1139,NaN,airplane,keyboard,c01,1139_con_dnn_c01_keyboard_10_n04505470_6684.JPEG
alexnet,1,1140,NaN,airplane,keyboard,c01,1140_con_dnn_c01_keyboard_10_n03085013_22686.JPEG
alexnet,1,1141,NaN,airplane,elephant,c01,1141_con_dnn_c01_elephant_10_n02504013_7925.JPEG
alexnet,1,1142,NaN,airplane,elephant,c01,1142_con_dnn_c01_elephant_10_n02504458_11884.JPEG
alexnet,1,1143,NaN,airplane,elephant,c01,1143_con_dnn_c01_elephant_10_n02504013_4426.JPEG
alexnet,1,1144,NaN,airplane,elephant,c01,1144_con_dnn_c01_elephant_10_n02504458_4161.JPEG
alexnet,1,1145,NaN,airplane,elephant,c01,1145_con_dnn_c01_elephant_10_n02504458_10428.JPEG
alexnet,1,1146,NaN,airplane,elephant,c01,1146_con_dnn_c01_elephant_10_n02504013_1758.JPEG
alexnet,1,1147,NaN,airplane,elephant,c01,1147_con_dnn_c01_elephant_10_n02504458_5851.JPEG
alexnet,1,1148,NaN,airplane,elephant,c01,1148_con_dnn_c01_elephant_10_n02504458_11740.JPEG
alexnet,1,1149,NaN,airplane,elephant,c01,1149_con_dnn_c01_elephant_10_n02504458_1377.JPEG
alexnet,1,1150,NaN,airplane,elephant,c01,1150_con_dnn_c01_elephant_10_n02504458_7342.JPEG
alexnet,1,1151,NaN,airplane,bicycle,c01,1151_con_dnn_c01_bicycle_10_n03792782_6667.JPEG
alexnet,1,1152,NaN,airplane,bicycle,c01,1152_con_dnn_c01_bicycle_10_n02835271_12946.JPEG
alexnet,1,1153,NaN,airplane,bicycle,c01,1153_con_dnn_c01_bicycle_10_n03792782_10526.JPEG
alexnet,1,1154,NaN,airplane,bicycle,c01,1154_con_dnn_c01_bicycle_10_n03792782_12884.JPEG
alexnet,1,1155,NaN,airplane,bicycle,c01,1155_con_dnn_c01_bicycle_10_n03792782_11959.JPEG
alexnet,1,1156,NaN,airplane,bicycle,c01,1156_con_dnn_c01_bicycle_10_n02835271_20171.JPEG
alexnet,1,1157,NaN,airplane,bicycle,c01,1157_con_dnn_c01_bicycle_10_n02835271_4681.JPEG
alexnet,1,1158,NaN,airplane,bicycle,c01,1158_con_dnn_c01_bicycle_10_n02835271_2068.JPEG
alexnet,1,1159,NaN,airplane,bicycle,c01,1159_con_dnn_c01_bicycle_10_n02835271_15565.JPEG
alexnet,1,1160,NaN,airplane,bicycle,c01,1160_con_dnn_c01_bicycle_10_n03792782_11023.JPEG
alexnet,1,1161,NaN,airplane,airplane,c01,1161_con_dnn_c01_airplane_10_n02690373_5342.JPEG
alexnet,1,1162,NaN,airplane,airplane,c01,1162_con_dnn_c01_airplane_10_n02690373_6914.JPEG
alexnet,1,1163,NaN,airplane,airplane,c01,1163_con_dnn_c01_airplane_10_n02690373_1119.JPEG
alexnet,1,1164,NaN,airplane,airplane,c01,1164_con_dnn_c01_airplane_10_n02690373_3435.JPEG
alexnet,1,1165,NaN,airplane,airplane,c01,1165_con_dnn_c01_airplane_10_n02690373_4364.JPEG
alexnet,1,1166,NaN,airplane,airplane,c01,1166_con_dnn_c01_airplane_10_n02690373_17063.JPEG
alexnet,1,1167,NaN,airplane,airplane,c01,1167_con_dnn_c01_airplane_10_n02690373_18468.JPEG
alexnet,1,1168,NaN,airplane,airplane,c01,1168_con_dnn_c01_airplane_10_n02690373_945.JPEG
alexnet,1,1169,NaN,airplane,airplane,c01,1169_con_dnn_c01_airplane_10_n02690373_2716.JPEG
alexnet,1,1170,NaN,airplane,airplane,c01,1170_con_dnn_c01_airplane_10_n02690373_4860.JPEG
alexnet,1,1171,NaN,airplane,clock,c01,1171_con_dnn_c01_clock_10_n04548280_1590.JPEG
alexnet,1,1172,NaN,airplane,clock,c01,1172_con_dnn_c01_clock_10_n02708093_8325.JPEG
alexnet,1,1173,NaN,airplane,clock,c01,1173_con_dnn_c01_clock_10_n04548280_6022.JPEG
alexnet,1,1174,NaN,airplane,clock,c01,1174_con_dnn_c01_clock_10_n03196217_8139.JPEG
alexnet,1,1175,NaN,airplane,clock,c01,1175_con_dnn_c01_clock_10_n02708093_6902.JPEG
alexnet,1,1176,NaN,airplane,clock,c01,1176_con_dnn_c01_clock_10_n04548280_2229.JPEG
alexnet,1,1177,NaN,airplane,clock,c01,1177_con_dnn_c01_clock_10_n04548280_2273.JPEG
alexnet,1,1178,NaN,airplane,clock,c01,1178_con_dnn_c01_clock_10_n04548280_5032.JPEG
alexnet,1,1179,NaN,bird,clock,c01,1179_con_dnn_c01_clock_10_n04548280_8170.JPEG
alexnet,1,1180,NaN,airplane,clock,c01,1180_con_dnn_c01_clock_10_n02708093_3625.JPEG
alexnet,1,1181,NaN,airplane,oven,c01,1181_con_dnn_c01_oven_10_n04111531_4904.JPEG
alexnet,1,1182,NaN,airplane,oven,c01,1182_con_dnn_c01_oven_10_n04111531_14934.JPEG
alexnet,1,1183,NaN,airplane,oven,c01,1183_con_dnn_c01_oven_10_n04111531_13520.JPEG
alexnet,1,1184,NaN,airplane,oven,c01,1184_con_dnn_c01_oven_10_n04111531_18052.JPEG
alexnet,1,1185,NaN,airplane,oven,c01,1185_con_dnn_c01_oven_10_n04111531_2922.JPEG
alexnet,1,1186,NaN,airplane,oven,c01,1186_con_dnn_c01_oven_10_n04111531_4963.JPEG
alexnet,1,1187,NaN,airplane,oven,c01,1187_con_dnn_c01_oven_10_n04111531_8934.JPEG
alexnet,1,1188,NaN,airplane,oven,c01,1188_con_dnn_c01_oven_10_n04111531_5906.JPEG
alexnet,1,1189,NaN,airplane,oven,c01,1189_con_dnn_c01_oven_10_n04111531_3099.JPEG
alexnet,1,1190,NaN,airplane,oven,c01,1190_con_dnn_c01_oven_10_n04111531_12903.JPEG
alexnet,1,1191,NaN,airplane,chair,c01,1191_con_dnn_c01_chair_10_n04429376_12212.JPEG
alexnet,1,1192,NaN,airplane,chair,c01,1192_con_dnn_c01_chair_10_n03376595_42.JPEG
alexnet,1,1193,NaN,airplane,chair,c01,1193_con_dnn_c01_chair_10_n04429376_18999.JPEG
alexnet,1,1194,NaN,airplane,chair,c01,1194_con_dnn_c01_chair_10_n04099969_12574.JPEG
alexnet,1,1195,NaN,airplane,chair,c01,1195_con_dnn_c01_chair_10_n04429376_1058.JPEG
alexnet,1,1196,NaN,airplane,chair,c01,1196_con_dnn_c01_chair_10_n04429376_9715.JPEG
alexnet,1,1197,NaN,airplane,chair,c01,1197_con_dnn_c01_chair_10_n02791124_12408.JPEG
alexnet,1,1198,NaN,airplane,chair,c01,1198_con_dnn_c01_chair_10_n04099969_19571.JPEG
alexnet,1,1199,NaN,airplane,chair,c01,1199_con_dnn_c01_chair_10_n02791124_629.JPEG
alexnet,1,1200,NaN,airplane,chair,c01,1200_con_dnn_c01_chair_10_n04099969_38700.JPEG
alexnet,1,1201,NaN,airplane,bear,c01,1201_con_dnn_c01_bear_10_n02134418_397.JPEG
alexnet,1,1202,NaN,airplane,bear,c01,1202_con_dnn_c01_bear_10_n02134084_19601.JPEG
alexnet,1,1203,NaN,airplane,bear,c01,1203_con_dnn_c01_bear_10_n02134418_567.JPEG
alexnet,1,1204,NaN,airplane,bear,c01,1204_con_dnn_c01_bear_10_n02134418_10383.JPEG
alexnet,1,1205,NaN,bird,bear,c01,1205_con_dnn_c01_bear_10_n02132136_10326.JPEG
alexnet,1,1206,NaN,airplane,bear,c01,1206_con_dnn_c01_bear_10_n02133161_4472.JPEG
alexnet,1,1207,NaN,bird,bear,c01,1207_con_dnn_c01_bear_10_n02134418_4489.JPEG
alexnet,1,1208,NaN,airplane,bear,c01,1208_con_dnn_c01_bear_10_n02133161_10857.JPEG
alexnet,1,1209,NaN,airplane,bear,c01,1209_con_dnn_c01_bear_10_n02134418_5710.JPEG
alexnet,1,1210,NaN,airplane,bear,c01,1210_con_dnn_c01_bear_10_n02134418_5737.JPEG
alexnet,1,1211,NaN,airplane,boat,c01,1211_con_dnn_c01_boat_10_n02951358_2285.JPEG
alexnet,1,1212,NaN,airplane,boat,c01,1212_con_dnn_c01_boat_10_n03344393_721.JPEG
alexnet,1,1213,NaN,airplane,boat,c01,1213_con_dnn_c01_boat_10_n02951358_863.JPEG
alexnet,1,1214,NaN,airplane,boat,c01,1214_con_dnn_c01_boat_10_n04273569_27606.JPEG
