subj,session,trial,rt,object_response,category,condition,imagename
alexnet,4,1,NaN,knife,knife,c100,3841_con_dnn_c100_knife_10_n03041632_33739.JPEG
alexnet,4,2,NaN,knife,knife,c100,3842_con_dnn_c100_knife_10_n03041632_29580.JPEG
alexnet,4,3,NaN,knife,knife,c100,3843_con_dnn_c100_knife_10_n03041632_56172.JPEG
alexnet,4,4,NaN,knife,knife,c100,3844_con_dnn_c100_knife_10_n03041632_51766.JPEG
alexnet,4,5,NaN,bottle,knife,c100,3845_con_dnn_c100_knife_10_n03041632_48149.JPEG
alexnet,4,6,NaN,knife,knife,c100,3846_con_dnn_c100_knife_10_n03041632_29343.JPEG
alexnet,4,7,NaN,knife,knife,c100,3847_con_dnn_c100_knife_10_n03041632_20770.JPEG
alexnet,4,8,NaN,knife,knife,c100,3848_con_dnn_c100_knife_10_n03041632_11969.JPEG
alexnet,4,9,NaN,bottle,knife,c100,3849_con_dnn_c100_knife_10_n03041632_36806.JPEG
alexnet,4,10,NaN,keyboard,knife,c100,3850_con_dnn_c100_knife_10_n03041632_751.JPEG
alexnet,4,11,NaN,keyboard,keyboard,c100,3851_con_dnn_c100_keyboard_10_n04505470_3022.JPEG
alexnet,4,12,NaN,keyboard,keyboard,c100,3852_con_dnn_c100_keyboard_10_n04505470_2048.JPEG
alexnet,4,13,NaN,keyboard,keyboard,c100,3853_con_dnn_c100_keyboard_10_n03085013_31513.JPEG
alexnet,4,14,NaN,keyboard,keyboard,c100,3854_con_dnn_c100_keyboard_10_n04505470_5058.JPEG
alexnet,4,15,NaN,keyboard,keyboard,c100,3855_con_dnn_c100_keyboard_10_n04505470_5157.JPEG
alexnet,4,16,NaN,keyboard,keyboard,c100,3856_con_dnn_c100_keyboard_10_n04505470_4681.JPEG
alexnet,4,17,NaN,keyboard,keyboard,c100,3857_con_dnn_c100_keyboard_10_n04505470_1649.JPEG
alexnet,4,18,NaN,keyboard,keyboard,c100,3858_con_dnn_c100_keyboard_10_n03085013_15995.JPEG
alexnet,4,19,NaN,keyboard,keyboard,c100,3859_con_dnn_c100_keyboard_10_n04505470_1338.JPEG
alexnet,4,20,NaN,keyboard,keyboard,c100,3860_con_dnn_c100_keyboard_10_n03085013_18861.JPEG
alexnet,4,21,NaN,elephant,elephant,c100,3861_con_dnn_c100_elephant_10_n02504013_6572.JPEG
alexnet,4,22,NaN,elephant,elephant,c100,3862_con_dnn_c100_elephant_10_n02504013_1810.JPEG
alexnet,4,23,NaN,elephant,elephant,c100,3863_con_dnn_c100_elephant_10_n02504013_9178.JPEG
alexnet,4,24,NaN,elephant,elephant,c100,3864_con_dnn_c100_elephant_10_n02504458_6199.JPEG
alexnet,4,25,NaN,bear,elephant,c100,3865_con_dnn_c100_elephant_10_n02504458_1140.JPEG
alexnet,4,26,NaN,elephant,elephant,c100,3866_con_dnn_c100_elephant_10_n02504013_5963.JPEG
alexnet,4,27,NaN,elephant,elephant,c100,3867_con_dnn_c100_elephant_10_n02504013_308.JPEG
alexnet,4,28,NaN,elephant,elephant,c100,3868_con_dnn_c100_elephant_10_n02504013_2559.JPEG
alexnet,4,29,NaN,elephant,elephant,c100,3869_con_dnn_c100_elephant_10_n02504458_379.JPEG
alexnet,4,30,NaN,elephant,elephant,c100,3870_con_dnn_c100_elephant_10_n02504458_3953.JPEG
alexnet,4,31,NaN,bicycle,bicycle,c100,3871_con_dnn_c100_bicycle_10_n03792782_63173.JPEG
alexnet,4,32,NaN,bicycle,bicycle,c100,3872_con_dnn_c100_bicycle_10_n02835271_1031.JPEG
alexnet,4,33,NaN,bicycle,bicycle,c100,3873_con_dnn_c100_bicycle_10_n02835271_12039.JPEG
alexnet,4,34,NaN,chair,bicycle,c100,3874_con_dnn_c100_bicycle_10_n03792782_2598.JPEG
alexnet,4,35,NaN,bicycle,bicycle,c100,3875_con_dnn_c100_bicycle_10_n03792782_12273.JPEG
alexnet,4,36,NaN,bicycle,bicycle,c100,3876_con_dnn_c100_bicycle_10_n02835271_9297.JPEG
alexnet,4,37,NaN,bicycle,bicycle,c100,3877_con_dnn_c100_bicycle_10_n02835271_6157.JPEG
alexnet,4,38,NaN,bicycle,bicycle,c100,3878_con_dnn_c100_bicycle_10_n02835271_11922.JPEG
alexnet,4,39,NaN,bicycle,bicycle,c100,3879_con_dnn_c100_bicycle_10_n03792782_21378.JPEG
alexnet,4,40,NaN,bicycle,bicycle,c100,3880_con_dnn_c100_bicycle_10_n03792782_76091.JPEG
alexnet,4,41,NaN,airplane,airplane,c100,3881_con_dnn_c100_airplane_10_n02690373_18848.JPEG
alexnet,4,42,NaN,airplane,airplane,c100,3882_con_dnn_c100_airplane_10_n02690373_2109.JPEG
alexnet,4,43,NaN,airplane,airplane,c100,3883_con_dnn_c100_airplane_10_n02690373_3696.JPEG
alexnet,4,44,NaN,airplane,airplane,c100,3884_con_dnn_c100_airplane_10_n02690373_18295.JPEG
alexnet,4,45,NaN,airplane,airplane,c100,3885_con_dnn_c100_airplane_10_n02690373_18412.JPEG
alexnet,4,46,NaN,airplane,airplane,c100,3886_con_dnn_c100_airplane_10_n02690373_7072.JPEG
alexnet,4,47,NaN,airplane,airplane,c100,3887_con_dnn_c100_airplane_10_n02690373_9828.JPEG
alexnet,4,48,NaN,airplane,airplane,c100,3888_con_dnn_c100_airplane_10_n02690373_9813.JPEG
alexnet,4,49,NaN,airplane,airplane,c100,3889_con_dnn_c100_airplane_10_n02690373_2024.JPEG
alexnet,4,50,NaN,airplane,airplane,c100,3890_con_dnn_c100_airplane_10_n02690373_1161.JPEG
alexnet,4,51,NaN,clock,clock,c100,3891_con_dnn_c100_clock_10_n03196217_3292.JPEG
alexnet,4,52,NaN,clock,clock,c100,3892_con_dnn_c100_clock_10_n03196217_3323.JPEG
alexnet,4,53,NaN,clock,clock,c100,3893_con_dnn_c100_clock_10_n04548280_9533.JPEG
alexnet,4,54,NaN,clock,clock,c100,3894_con_dnn_c100_clock_10_n02708093_6257.JPEG
alexnet,4,55,NaN,clock,clock,c100,3895_con_dnn_c100_clock_10_n04548280_1298.JPEG
alexnet,4,56,NaN,clock,clock,c100,3896_con_dnn_c100_clock_10_n02708093_1094.JPEG
alexnet,4,57,NaN,clock,clock,c100,3897_con_dnn_c100_clock_10_n03196217_7353.JPEG
alexnet,4,58,NaN,clock,clock,c100,3898_con_dnn_c100_clock_10_n02708093_3605.JPEG
alexnet,4,59,NaN,clock,clock,c100,3899_con_dnn_c100_clock_10_n04548280_2650.JPEG
alexnet,4,60,NaN,clock,clock,c100,3900_con_dnn_c100_clock_10_n02708093_111.JPEG
alexnet,4,61,NaN,cat,oven,c100,3901_con_dnn_c100_oven_10_n04111531_15052.JPEG
alexnet,4,62,NaN,oven,oven,c100,3902_con_dnn_c100_oven_10_n04111531_10521.JPEG
alexnet,4,63,NaN,chair,oven,c100,3903_con_dnn_c100_oven_10_n04111531_326.JPEG
alexnet,4,64,NaN,oven,oven,c100,3904_con_dnn_c100_oven_10_n04111531_4671.JPEG
alexnet,4,65,NaN,truck,oven,c100,3905_con_dnn_c100_oven_10_n04111531_1488.JPEG
alexnet,4,66,NaN,oven,oven,c100,3906_con_dnn_c100_oven_10_n04111531_4116.JPEG
alexnet,4,67,NaN,chair,oven,c100,3907_con_dnn_c100_oven_10_n04111531_19104.JPEG
alexnet,4,68,NaN,car,oven,c100,3908_con_dnn_c100_oven_10_n04111531_11287.JPEG
alexnet,4,69,NaN,oven,oven,c100,3909_con_dnn_c100_oven_10_n04111531_8681.JPEG
alexnet,4,70,NaN,oven,oven,c100,3910_con_dnn_c100_oven_10_n04111531_21120.JPEG
alexnet,4,71,NaN,chair,chair,c100,3911_con_dnn_c100_chair_10_n04099969_141.JPEG
alexnet,4,72,NaN,chair,chair,c100,3912_con_dnn_c100_chair_10_n02791124_3271.JPEG
alexnet,4,73,NaN,chair,chair,c100,3913_con_dnn_c100_chair_10_n02791124_2313.JPEG
alexnet,4,74,NaN,chair,chair,c100,3914_con_dnn_c100_chair_10_n03376595_15468.JPEG
alexnet,4,75,NaN,chair,chair,c100,3915_con_dnn_c100_chair_10_n03376595_4748.JPEG
alexnet,4,76,NaN,chair,chair,c100,3916_con_dnn_c100_chair_10_n02791124_13057.JPEG
alexnet,4,77,NaN,chair,chair,c100,3917_con_dnn_c100_chair_10_n02791124_6382.JPEG
alexnet,4,78,NaN,chair,chair,c100,3918_con_dnn_c100_chair_10_n03376595_8172.JPEG
alexnet,4,79,NaN,chair,chair,c100,3919_con_dnn_c100_chair_10_n04099969_34383.JPEG
alexnet,4,80,NaN,chair,chair,c100,3920_con_dnn_c100_chair_10_n04099969_5457.JPEG
alexnet,4,81,NaN,bear,bear,c100,3921_con_dnn_c100_bear_10_n02133161_3868.JPEG
alexnet,4,82,NaN,bear,bear,c100,3922_con_dnn_c100_bear_10_n02133161_5607.JPEG
alexnet,4,83,NaN,bear,bear,c100,3923_con_dnn_c100_bear_10_n02134418_2220.JPEG
alexnet,4,84,NaN,bear,bear,c100,3924_con_dnn_c100_bear_10_n02134418_4735.JPEG
alexnet,4,85,NaN,bear,bear,c100,3925_con_dnn_c100_bear_10_n02134418_5019.JPEG
alexnet,4,86,NaN,bear,bear,c100,3926_con_dnn_c100_bear_10_n02134084_1921.JPEG
alexnet,4,87,NaN,cat,bear,c100,3927_con_dnn_c100_bear_10_n02134418_4483.JPEG
alexnet,4,88,NaN,bear,bear,c100,3928_con_dnn_c100_bear_10_n02133161_3908.JPEG
alexnet,4,89,NaN,bear,bear,c100,3929_con_dnn_c100_bear_10_n02132136_5453.JPEG
alexnet,4,90,NaN,bear,bear,c100,3930_con_dnn_c100_bear_10_n02134418_3641.JPEG
alexnet,4,91,NaN,truck,boat,c100,3931_con_dnn_c100_boat_10_n04612504_19079.JPEG
alexnet,4,92,NaN,boat,boat,c100,3932_con_dnn_c100_boat_10_n04612504_19912.JPEG
alexnet,4,93,NaN,boat,boat,c100,3933_con_dnn_c100_boat_10_n04612504_5688.JPEG
alexnet,4,94,NaN,boat,boat,c100,3934_con_dnn_c100_boat_10_n03344393_7667.JPEG
alexnet,4,95,NaN,truck,boat,c100,3935_con_dnn_c100_boat_10_n03344393_7443.JPEG
alexnet,4,96,NaN,boat,boat,c100,3936_con_dnn_c100_boat_10_n03662601_9602.JPEG
alexnet,4,97,NaN,boat,boat,c100,3937_con_dnn_c100_boat_10_n02951358_32429.JPEG
alexnet,4,98,NaN,boat,boat,c100,3938_con_dnn_c100_boat_10_n03344393_2560.JPEG
alexnet,4,99,NaN,boat,boat,c100,3939_con_dnn_c100_boat_10_n03662601_34625.JPEG
alexnet,4,100,NaN,boat,boat,c100,3940_con_dnn_c100_boat_10_n04612504_13345.JPEG
alexnet,4,101,NaN,cat,cat,c100,3941_con_dnn_c100_cat_10_n02123597_4911.JPEG
alexnet,4,102,NaN,cat,cat,c100,3942_con_dnn_c100_cat_10_n02123597_95.JPEG
alexnet,4,103,NaN,dog,cat,c100,3943_con_dnn_c100_cat_10_n02123159_1750.JPEG
alexnet,4,104,NaN,elephant,cat,c100,3944_con_dnn_c100_cat_10_n02123159_7239.JPEG
alexnet,4,105,NaN,dog,cat,c100,3945_con_dnn_c100_cat_10_n02123159_15684.JPEG
alexnet,4,106,NaN,cat,cat,c100,3946_con_dnn_c100_cat_10_n02124075_6843.JPEG
alexnet,4,107,NaN,cat,cat,c100,3947_con_dnn_c100_cat_10_n02123394_415.JPEG
alexnet,4,108,NaN,dog,cat,c100,3948_con_dnn_c100_cat_10_n02125311_18185.JPEG
alexnet,4,109,NaN,clock,cat,c100,3949_con_dnn_c100_cat_10_n02124075_4834.JPEG
alexnet,4,110,NaN,cat,cat,c100,3950_con_dnn_c100_cat_10_n02123597_9056.JPEG
alexnet,4,111,NaN,bottle,bottle,c100,3951_con_dnn_c100_bottle_10_n03983396_2500.JPEG
alexnet,4,112,NaN,bottle,bottle,c100,3952_con_dnn_c100_bottle_10_n04579145_2202.JPEG
alexnet,4,113,NaN,bottle,bottle,c100,3953_con_dnn_c100_bottle_10_n04579145_1049.JPEG
alexnet,4,114,NaN,bottle,bottle,c100,3954_con_dnn_c100_bottle_10_n03983396_16710.JPEG
alexnet,4,115,NaN,bottle,bottle,c100,3955_con_dnn_c100_bottle_10_n04557648_8320.JPEG
alexnet,4,116,NaN,boat,bottle,c100,3956_con_dnn_c100_bottle_10_n04557648_2571.JPEG
alexnet,4,117,NaN,bottle,bottle,c100,3957_con_dnn_c100_bottle_10_n03937543_6080.JPEG
alexnet,4,118,NaN,bottle,bottle,c100,3958_con_dnn_c100_bottle_10_n04560804_4368.JPEG
alexnet,4,119,NaN,bottle,bottle,c100,3959_con_dnn_c100_bottle_10_n03937543_4150.JPEG
alexnet,4,120,NaN,bottle,bottle,c100,3960_con_dnn_c100_bottle_10_n03983396_9823.JPEG
alexnet,4,121,NaN,truck,truck,c100,3961_con_dnn_c100_truck_10_n03417042_3047.JPEG
alexnet,4,122,NaN,truck,truck,c100,3962_con_dnn_c100_truck_10_n03796401_15240.JPEG
alexnet,4,123,NaN,truck,truck,c100,3963_con_dnn_c100_truck_10_n03796401_18267.JPEG
alexnet,4,124,NaN,truck,truck,c100,3964_con_dnn_c100_truck_10_n04467665_1174.JPEG
alexnet,4,125,NaN,car,truck,c100,3965_con_dnn_c100_truck_10_n03796401_5412.JPEG
alexnet,4,126,NaN,truck,truck,c100,3966_con_dnn_c100_truck_10_n03796401_1458.JPEG
alexnet,4,127,NaN,truck,truck,c100,3967_con_dnn_c100_truck_10_n04467665_42823.JPEG
alexnet,4,128,NaN,truck,truck,c100,3968_con_dnn_c100_truck_10_n03417042_4551.JPEG
alexnet,4,129,NaN,truck,truck,c100,3969_con_dnn_c100_truck_10_n03417042_13223.JPEG
alexnet,4,130,NaN,bottle,truck,c100,3970_con_dnn_c100_truck_10_n04467665_1354.JPEG
alexnet,4,131,NaN,car,car,c100,3971_con_dnn_c100_car_10_n02814533_42059.JPEG
alexnet,4,132,NaN,car,car,c100,3972_con_dnn_c100_car_10_n02814533_33913.JPEG
alexnet,4,133,NaN,car,car,c100,3973_con_dnn_c100_car_10_n03100240_22499.JPEG
alexnet,4,134,NaN,truck,car,c100,3974_con_dnn_c100_car_10_n04285008_10914.JPEG
alexnet,4,135,NaN,car,car,c100,3975_con_dnn_c100_car_10_n03100240_8160.JPEG
alexnet,4,136,NaN,car,car,c100,3976_con_dnn_c100_car_10_n03100240_5591.JPEG
alexnet,4,137,NaN,car,car,c100,3977_con_dnn_c100_car_10_n02814533_83492.JPEG
alexnet,4,138,NaN,car,car,c100,3978_con_dnn_c100_car_10_n04285008_3005.JPEG
alexnet,4,139,NaN,car,car,c100,3979_con_dnn_c100_car_10_n04285008_11704.JPEG
alexnet,4,140,NaN,car,car,c100,3980_con_dnn_c100_car_10_n04285008_1156.JPEG
alexnet,4,141,NaN,bird,bird,c100,3981_con_dnn_c100_bird_10_n01534433_4932.JPEG
alexnet,4,142,NaN,bird,bird,c100,3982_con_dnn_c100_bird_10_n01531178_3495.JPEG
alexnet,4,143,NaN,dog,bird,c100,3983_con_dnn_c100_bird_10_n01829413_5914.JPEG
alexnet,4,144,NaN,bird,bird,c100,3984_con_dnn_c100_bird_10_n02018207_8094.JPEG
alexnet,4,145,NaN,bird,bird,c100,3985_con_dnn_c100_bird_10_n02028035_6382.JPEG
alexnet,4,146,NaN,bird,bird,c100,3986_con_dnn_c100_bird_10_n01833805_3356.JPEG
alexnet,4,147,NaN,bird,bird,c100,3987_con_dnn_c100_bird_10_n02033041_539.JPEG
alexnet,4,148,NaN,bird,bird,c100,3988_con_dnn_c100_bird_10_n02013706_2491.JPEG
alexnet,4,149,NaN,bird,bird,c100,3989_con_dnn_c100_bird_10_n01537544_3143.JPEG
alexnet,4,150,NaN,bird,bird,c100,3990_con_dnn_c100_bird_10_n01798484_1259.JPEG
alexnet,4,151,NaN,dog,dog,c100,3991_con_dnn_c100_dog_10_n02110185_10820.JPEG
alexnet,4,152,NaN,dog,dog,c100,3992_con_dnn_c100_dog_10_n02096294_11584.JPEG
alexnet,4,153,NaN,dog,dog,c100,3993_con_dnn_c100_dog_10_n02092002_12447.JPEG
alexnet,4,154,NaN,dog,dog,c100,3994_con_dnn_c100_dog_10_n02104029_7529.JPEG
alexnet,4,155,NaN,boat,dog,c100,3995_con_dnn_c100_dog_10_n02091244_12837.JPEG
alexnet,4,156,NaN,dog,dog,c100,3996_con_dnn_c100_dog_10_n02088364_229.JPEG
alexnet,4,157,NaN,dog,dog,c100,3997_con_dnn_c100_dog_10_n02090721_4667.JPEG
alexnet,4,158,NaN,dog,dog,c100,3998_con_dnn_c100_dog_10_n02099601_5883.JPEG
alexnet,4,159,NaN,dog,dog,c100,3999_con_dnn_c100_dog_10_n02109525_61273.JPEG
alexnet,4,160,NaN,dog,dog,c100,4000_con_dnn_c100_dog_10_n02097209_4184.JPEG
alexnet,4,161,NaN,knife,knife,c50,4001_con_dnn_c50_knife_10_n03041632_36280.JPEG
alexnet,4,162,NaN,knife,knife,c50,4002_con_dnn_c50_knife_10_n03041632_25257.JPEG
alexnet,4,163,NaN,bottle,knife,c50,4003_con_dnn_c50_knife_10_n03041632_55083.JPEG
alexnet,4,164,NaN,knife,knife,c50,4004_con_dnn_c50_knife_10_n03041632_13203.JPEG
alexnet,4,165,NaN,bottle,knife,c50,4005_con_dnn_c50_knife_10_n03041632_1143.JPEG
alexnet,4,166,NaN,chair,knife,c50,4006_con_dnn_c50_knife_10_n03041632_20697.JPEG
alexnet,4,167,NaN,dog,knife,c50,4007_con_dnn_c50_knife_10_n03041632_32292.JPEG
alexnet,4,168,NaN,knife,knife,c50,4008_con_dnn_c50_knife_10_n03041632_28201.JPEG
alexnet,4,169,NaN,dog,knife,c50,4009_con_dnn_c50_knife_10_n03041632_46422.JPEG
alexnet,4,170,NaN,clock,knife,c50,4010_con_dnn_c50_knife_10_n03041632_4806.JPEG
alexnet,4,171,NaN,keyboard,keyboard,c50,4011_con_dnn_c50_keyboard_10_n03085013_24087.JPEG
alexnet,4,172,NaN,keyboard,keyboard,c50,4012_con_dnn_c50_keyboard_10_n03085013_25575.JPEG
alexnet,4,173,NaN,dog,keyboard,c50,4013_con_dnn_c50_keyboard_10_n04505470_3258.JPEG
alexnet,4,174,NaN,keyboard,keyboard,c50,4014_con_dnn_c50_keyboard_10_n03085013_584.JPEG
alexnet,4,175,NaN,keyboard,keyboard,c50,4015_con_dnn_c50_keyboard_10_n03085013_4553.JPEG
alexnet,4,176,NaN,keyboard,keyboard,c50,4016_con_dnn_c50_keyboard_10_n04505470_142.JPEG
alexnet,4,177,NaN,keyboard,keyboard,c50,4017_con_dnn_c50_keyboard_10_n04505470_2623.JPEG
alexnet,4,178,NaN,bottle,keyboard,c50,4018_con_dnn_c50_keyboard_10_n04505470_1978.JPEG
alexnet,4,179,NaN,keyboard,keyboard,c50,4019_con_dnn_c50_keyboard_10_n04505470_5060.JPEG
alexnet,4,180,NaN,keyboard,keyboard,c50,4020_con_dnn_c50_keyboard_10_n04505470_532.JPEG
alexnet,4,181,NaN,elephant,elephant,c50,4021_con_dnn_c50_elephant_10_n02504458_5774.JPEG
alexnet,4,182,NaN,elephant,elephant,c50,4022_con_dnn_c50_elephant_10_n02504013_783.JPEG
alexnet,4,183,NaN,elephant,elephant,c50,4023_con_dnn_c50_elephant_10_n02504013_5837.JPEG
alexnet,4,184,NaN,dog,elephant,c50,4024_con_dnn_c50_elephant_10_n02504458_7033.JPEG
alexnet,4,185,NaN,elephant,elephant,c50,4025_con_dnn_c50_elephant_10_n02504458_30.JPEG
alexnet,4,186,NaN,elephant,elephant,c50,4026_con_dnn_c50_elephant_10_n02504013_5848.JPEG
alexnet,4,187,NaN,elephant,elephant,c50,4027_con_dnn_c50_elephant_10_n02504013_2446.JPEG
alexnet,4,188,NaN,elephant,elephant,c50,4028_con_dnn_c50_elephant_10_n02504013_10659.JPEG
alexnet,4,189,NaN,elephant,elephant,c50,4029_con_dnn_c50_elephant_10_n02504013_9361.JPEG
alexnet,4,190,NaN,elephant,elephant,c50,4030_con_dnn_c50_elephant_10_n02504458_3897.JPEG
alexnet,4,191,NaN,clock,bicycle,c50,4031_con_dnn_c50_bicycle_10_n02835271_19361.JPEG
alexnet,4,192,NaN,bicycle,bicycle,c50,4032_con_dnn_c50_bicycle_10_n03792782_14366.JPEG
alexnet,4,193,NaN,bicycle,bicycle,c50,4033_con_dnn_c50_bicycle_10_n02835271_23936.JPEG
alexnet,4,194,NaN,bicycle,bicycle,c50,4034_con_dnn_c50_bicycle_10_n02835271_14862.JPEG
alexnet,4,195,NaN,bicycle,bicycle,c50,4035_con_dnn_c50_bicycle_10_n03792782_24203.JPEG
alexnet,4,196,NaN,bicycle,bicycle,c50,4036_con_dnn_c50_bicycle_10_n03792782_40881.JPEG
alexnet,4,197,NaN,chair,bicycle,c50,4037_con_dnn_c50_bicycle_10_n02835271_158.JPEG
alexnet,4,198,NaN,bicycle,bicycle,c50,4038_con_dnn_c50_bicycle_10_n02835271_9418.JPEG
alexnet,4,199,NaN,boat,bicycle,c50,4039_con_dnn_c50_bicycle_10_n02835271_8764.JPEG
alexnet,4,200,NaN,chair,bicycle,c50,4040_con_dnn_c50_bicycle_10_n03792782_1032.JPEG
alexnet,4,201,NaN,airplane,airplane,c50,4041_con_dnn_c50_airplane_10_n02690373_18479.JPEG
alexnet,4,202,NaN,airplane,airplane,c50,4042_con_dnn_c50_airplane_10_n02690373_6831.JPEG
alexnet,4,203,NaN,airplane,airplane,c50,4043_con_dnn_c50_airplane_10_n02690373_20033.JPEG
alexnet,4,204,NaN,airplane,airplane,c50,4044_con_dnn_c50_airplane_10_n02690373_19733.JPEG
alexnet,4,205,NaN,clock,airplane,c50,4045_con_dnn_c50_airplane_10_n02690373_7535.JPEG
alexnet,4,206,NaN,airplane,airplane,c50,4046_con_dnn_c50_airplane_10_n02690373_4617.JPEG
alexnet,4,207,NaN,airplane,airplane,c50,4047_con_dnn_c50_airplane_10_n02690373_8444.JPEG
alexnet,4,208,NaN,airplane,airplane,c50,4048_con_dnn_c50_airplane_10_n02690373_20690.JPEG
alexnet,4,209,NaN,airplane,airplane,c50,4049_con_dnn_c50_airplane_10_n02690373_4465.JPEG
alexnet,4,210,NaN,airplane,airplane,c50,4050_con_dnn_c50_airplane_10_n02690373_563.JPEG
alexnet,4,211,NaN,clock,clock,c50,4051_con_dnn_c50_clock_10_n04548280_7689.JPEG
alexnet,4,212,NaN,clock,clock,c50,4052_con_dnn_c50_clock_10_n02708093_556.JPEG
alexnet,4,213,NaN,clock,clock,c50,4053_con_dnn_c50_clock_10_n04548280_1112.JPEG
alexnet,4,214,NaN,clock,clock,c50,4054_con_dnn_c50_clock_10_n03196217_1898.JPEG
alexnet,4,215,NaN,keyboard,clock,c50,4055_con_dnn_c50_clock_10_n02708093_6730.JPEG
alexnet,4,216,NaN,bottle,clock,c50,4056_con_dnn_c50_clock_10_n04548280_4306.JPEG
alexnet,4,217,NaN,clock,clock,c50,4057_con_dnn_c50_clock_10_n02708093_670.JPEG
alexnet,4,218,NaN,bottle,clock,c50,4058_con_dnn_c50_clock_10_n03196217_13429.JPEG
alexnet,4,219,NaN,clock,clock,c50,4059_con_dnn_c50_clock_10_n03196217_592.JPEG
alexnet,4,220,NaN,clock,clock,c50,4060_con_dnn_c50_clock_10_n02708093_3972.JPEG
alexnet,4,221,NaN,oven,oven,c50,4061_con_dnn_c50_oven_10_n04111531_689.JPEG
alexnet,4,222,NaN,oven,oven,c50,4062_con_dnn_c50_oven_10_n04111531_7266.JPEG
alexnet,4,223,NaN,oven,oven,c50,4063_con_dnn_c50_oven_10_n04111531_1002.JPEG
alexnet,4,224,NaN,knife,oven,c50,4064_con_dnn_c50_oven_10_n04111531_741.JPEG
alexnet,4,225,NaN,bird,oven,c50,4065_con_dnn_c50_oven_10_n04111531_22291.JPEG
alexnet,4,226,NaN,oven,oven,c50,4066_con_dnn_c50_oven_10_n04111531_7130.JPEG
alexnet,4,227,NaN,oven,oven,c50,4067_con_dnn_c50_oven_10_n04111531_5110.JPEG
alexnet,4,228,NaN,oven,oven,c50,4068_con_dnn_c50_oven_10_n04111531_1922.JPEG
alexnet,4,229,NaN,oven,oven,c50,4069_con_dnn_c50_oven_10_n04111531_2797.JPEG
alexnet,4,230,NaN,chair,oven,c50,4070_con_dnn_c50_oven_10_n04111531_7221.JPEG
alexnet,4,231,NaN,chair,chair,c50,4071_con_dnn_c50_chair_10_n02791124_5868.JPEG
alexnet,4,232,NaN,clock,chair,c50,4072_con_dnn_c50_chair_10_n02791124_1045.JPEG
alexnet,4,233,NaN,chair,chair,c50,4073_con_dnn_c50_chair_10_n04099969_4971.JPEG
alexnet,4,234,NaN,chair,chair,c50,4074_con_dnn_c50_chair_10_n04429376_21845.JPEG
alexnet,4,235,NaN,chair,chair,c50,4075_con_dnn_c50_chair_10_n04099969_3453.JPEG
alexnet,4,236,NaN,chair,chair,c50,4076_con_dnn_c50_chair_10_n03376595_12305.JPEG
alexnet,4,237,NaN,chair,chair,c50,4077_con_dnn_c50_chair_10_n04429376_50302.JPEG
alexnet,4,238,NaN,chair,chair,c50,4078_con_dnn_c50_chair_10_n04099969_1527.JPEG
alexnet,4,239,NaN,chair,chair,c50,4079_con_dnn_c50_chair_10_n04099969_1241.JPEG
alexnet,4,240,NaN,chair,chair,c50,4080_con_dnn_c50_chair_10_n04099969_1696.JPEG
alexnet,4,241,NaN,bear,bear,c50,4081_con_dnn_c50_bear_10_n02132136_17778.JPEG
alexnet,4,242,NaN,bear,bear,c50,4082_con_dnn_c50_bear_10_n02133161_10024.JPEG
alexnet,4,243,NaN,elephant,bear,c50,4083_con_dnn_c50_bear_10_n02134084_791.JPEG
alexnet,4,244,NaN,elephant,bear,c50,4084_con_dnn_c50_bear_10_n02134084_8601.JPEG
alexnet,4,245,NaN,bear,bear,c50,4085_con_dnn_c50_bear_10_n02132136_1972.JPEG
alexnet,4,246,NaN,bear,bear,c50,4086_con_dnn_c50_bear_10_n02134084_6891.JPEG
alexnet,4,247,NaN,bear,bear,c50,4087_con_dnn_c50_bear_10_n02134084_17215.JPEG
alexnet,4,248,NaN,bear,bear,c50,4088_con_dnn_c50_bear_10_n02134418_1826.JPEG
alexnet,4,249,NaN,bear,bear,c50,4089_con_dnn_c50_bear_10_n02134084_854.JPEG
alexnet,4,250,NaN,bear,bear,c50,4090_con_dnn_c50_bear_10_n02134418_1409.JPEG
alexnet,4,251,NaN,boat,boat,c50,4091_con_dnn_c50_boat_10_n04273569_4543.JPEG
alexnet,4,252,NaN,boat,boat,c50,4092_con_dnn_c50_boat_10_n02951358_35705.JPEG
alexnet,4,253,NaN,boat,boat,c50,4093_con_dnn_c50_boat_10_n04273569_229.JPEG
alexnet,4,254,NaN,boat,boat,c50,4094_con_dnn_c50_boat_10_n04273569_18041.JPEG
alexnet,4,255,NaN,boat,boat,c50,4095_con_dnn_c50_boat_10_n04612504_13826.JPEG
alexnet,4,256,NaN,car,boat,c50,4096_con_dnn_c50_boat_10_n03344393_1519.JPEG
alexnet,4,257,NaN,boat,boat,c50,4097_con_dnn_c50_boat_10_n04273569_9102.JPEG
alexnet,4,258,NaN,boat,boat,c50,4098_con_dnn_c50_boat_10_n03344393_1058.JPEG
alexnet,4,259,NaN,boat,boat,c50,4099_con_dnn_c50_boat_10_n03344393_3301.JPEG
alexnet,4,260,NaN,boat,boat,c50,4100_con_dnn_c50_boat_10_n04612504_13987.JPEG
alexnet,4,261,NaN,cat,cat,c50,4101_con_dnn_c50_cat_10_n02123394_9542.JPEG
alexnet,4,262,NaN,bottle,cat,c50,4102_con_dnn_c50_cat_10_n02124075_4240.JPEG
alexnet,4,263,NaN,cat,cat,c50,4103_con_dnn_c50_cat_10_n02124075_11383.JPEG
alexnet,4,264,NaN,cat,cat,c50,4104_con_dnn_c50_cat_10_n02123159_7629.JPEG
alexnet,4,265,NaN,cat,cat,c50,4105_con_dnn_c50_cat_10_n02123394_8092.JPEG
alexnet,4,266,NaN,bottle,cat,c50,4106_con_dnn_c50_cat_10_n02123045_11041.JPEG
alexnet,4,267,NaN,dog,cat,c50,4107_con_dnn_c50_cat_10_n02123394_6271.JPEG
alexnet,4,268,NaN,dog,cat,c50,4108_con_dnn_c50_cat_10_n02125311_19999.JPEG
alexnet,4,269,NaN,dog,cat,c50,4109_con_dnn_c50_cat_10_n02123394_6779.JPEG
alexnet,4,270,NaN,cat,cat,c50,4110_con_dnn_c50_cat_10_n02125311_22026.JPEG
alexnet,4,271,NaN,bottle,bottle,c50,4111_con_dnn_c50_bottle_10_n02823428_6050.JPEG
alexnet,4,272,NaN,dog,bottle,c50,4112_con_dnn_c50_bottle_10_n04560804_4724.JPEG
alexnet,4,273,NaN,bottle,bottle,c50,4113_con_dnn_c50_bottle_10_n04560804_15843.JPEG
alexnet,4,274,NaN,bottle,bottle,c50,4114_con_dnn_c50_bottle_10_n03983396_12895.JPEG
alexnet,4,275,NaN,bottle,bottle,c50,4115_con_dnn_c50_bottle_10_n02823428_5027.JPEG
alexnet,4,276,NaN,bottle,bottle,c50,4116_con_dnn_c50_bottle_10_n03983396_9997.JPEG
alexnet,4,277,NaN,bottle,bottle,c50,4117_con_dnn_c50_bottle_10_n03937543_287.JPEG
alexnet,4,278,NaN,bottle,bottle,c50,4118_con_dnn_c50_bottle_10_n04591713_4546.JPEG
alexnet,4,279,NaN,bottle,bottle,c50,4119_con_dnn_c50_bottle_10_n04591713_4523.JPEG
alexnet,4,280,NaN,bottle,bottle,c50,4120_con_dnn_c50_bottle_10_n04579145_506.JPEG
alexnet,4,281,NaN,truck,truck,c50,4121_con_dnn_c50_truck_10_n03796401_30000.JPEG
alexnet,4,282,NaN,truck,truck,c50,4122_con_dnn_c50_truck_10_n04467665_44412.JPEG
alexnet,4,283,NaN,truck,truck,c50,4123_con_dnn_c50_truck_10_n03417042_5508.JPEG
alexnet,4,284,NaN,truck,truck,c50,4124_con_dnn_c50_truck_10_n03796401_16586.JPEG
alexnet,4,285,NaN,truck,truck,c50,4125_con_dnn_c50_truck_10_n03796401_20573.JPEG
alexnet,4,286,NaN,truck,truck,c50,4126_con_dnn_c50_truck_10_n03417042_8076.JPEG
alexnet,4,287,NaN,truck,truck,c50,4127_con_dnn_c50_truck_10_n03417042_9132.JPEG
alexnet,4,288,NaN,truck,truck,c50,4128_con_dnn_c50_truck_10_n03417042_12170.JPEG
alexnet,4,289,NaN,truck,truck,c50,4129_con_dnn_c50_truck_10_n03417042_3307.JPEG
alexnet,4,290,NaN,truck,truck,c50,4130_con_dnn_c50_truck_10_n03417042_17589.JPEG
alexnet,4,291,NaN,car,car,c50,4131_con_dnn_c50_car_10_n02814533_80837.JPEG
alexnet,4,292,NaN,car,car,c50,4132_con_dnn_c50_car_10_n02814533_8306.JPEG
alexnet,4,293,NaN,truck,car,c50,4133_con_dnn_c50_car_10_n04285008_9527.JPEG
alexnet,4,294,NaN,truck,car,c50,4134_con_dnn_c50_car_10_n04285008_6576.JPEG
alexnet,4,295,NaN,car,car,c50,4135_con_dnn_c50_car_10_n03100240_5865.JPEG
alexnet,4,296,NaN,truck,car,c50,4136_con_dnn_c50_car_10_n03100240_260.JPEG
alexnet,4,297,NaN,chair,car,c50,4137_con_dnn_c50_car_10_n02814533_43727.JPEG
alexnet,4,298,NaN,car,car,c50,4138_con_dnn_c50_car_10_n04285008_9593.JPEG
alexnet,4,299,NaN,truck,car,c50,4139_con_dnn_c50_car_10_n04285008_9876.JPEG
alexnet,4,300,NaN,car,car,c50,4140_con_dnn_c50_car_10_n04285008_1062.JPEG
alexnet,4,301,NaN,knife,bird,c50,4141_con_dnn_c50_bird_10_n01855672_11080.JPEG
alexnet,4,302,NaN,chair,bird,c50,4142_con_dnn_c50_bird_10_n01860187_334.JPEG
alexnet,4,303,NaN,dog,bird,c50,4143_con_dnn_c50_bird_10_n01798484_9191.JPEG
alexnet,4,304,NaN,bird,bird,c50,4144_con_dnn_c50_bird_10_n02027492_7274.JPEG
alexnet,4,305,NaN,bottle,bird,c50,4145_con_dnn_c50_bird_10_n02025239_4447.JPEG
alexnet,4,306,NaN,bird,bird,c50,4146_con_dnn_c50_bird_10_n01833805_14486.JPEG
alexnet,4,307,NaN,bird,bird,c50,4147_con_dnn_c50_bird_10_n02025239_3619.JPEG
alexnet,4,308,NaN,bird,bird,c50,4148_con_dnn_c50_bird_10_n01514859_10608.JPEG
alexnet,4,309,NaN,bird,bird,c50,4149_con_dnn_c50_bird_10_n01855672_9251.JPEG
alexnet,4,310,NaN,bird,bird,c50,4150_con_dnn_c50_bird_10_n01514859_16247.JPEG
alexnet,4,311,NaN,dog,dog,c50,4151_con_dnn_c50_dog_10_n02090379_2459.JPEG
alexnet,4,312,NaN,dog,dog,c50,4152_con_dnn_c50_dog_10_n02087046_4928.JPEG
alexnet,4,313,NaN,dog,dog,c50,4153_con_dnn_c50_dog_10_n02101388_11775.JPEG
alexnet,4,314,NaN,dog,dog,c50,4154_con_dnn_c50_dog_10_n02105855_431.JPEG
alexnet,4,315,NaN,cat,dog,c50,4155_con_dnn_c50_dog_10_n02105056_3616.JPEG
alexnet,4,316,NaN,dog,dog,c50,4156_con_dnn_c50_dog_10_n02113978_1146.JPEG
alexnet,4,317,NaN,dog,dog,c50,4157_con_dnn_c50_dog_10_n02109961_1970.JPEG
alexnet,4,318,NaN,bear,dog,c50,4158_con_dnn_c50_dog_10_n02099849_3552.JPEG
alexnet,4,319,NaN,dog,dog,c50,4159_con_dnn_c50_dog_10_n02098105_1607.JPEG
alexnet,4,320,NaN,dog,dog,c50,4160_con_dnn_c50_dog_10_n02097047_1803.JPEG
alexnet,4,321,NaN,knife,knife,c30,4161_con_dnn_c30_knife_10_n03041632_102828.JPEG
alexnet,4,322,NaN,keyboard,knife,c30,4162_con_dnn_c30_knife_10_n03041632_11285.JPEG
alexnet,4,323,NaN,dog,knife,c30,4163_con_dnn_c30_knife_10_n03041632_30079.JPEG
alexnet,4,324,NaN,knife,knife,c30,4164_con_dnn_c30_knife_10_n03041632_20707.JPEG
alexnet,4,325,NaN,knife,knife,c30,4165_con_dnn_c30_knife_10_n03041632_94620.JPEG
alexnet,4,326,NaN,knife,knife,c30,4166_con_dnn_c30_knife_10_n03041632_10777.JPEG
alexnet,4,327,NaN,knife,knife,c30,4167_con_dnn_c30_knife_10_n03041632_2483.JPEG
alexnet,4,328,NaN,knife,knife,c30,4168_con_dnn_c30_knife_10_n03041632_28202.JPEG
alexnet,4,329,NaN,bottle,knife,c30,4169_con_dnn_c30_knife_10_n03041632_362.JPEG
alexnet,4,330,NaN,knife,knife,c30,4170_con_dnn_c30_knife_10_n03041632_42526.JPEG
alexnet,4,331,NaN,keyboard,keyboard,c30,4171_con_dnn_c30_keyboard_10_n03085013_23269.JPEG
alexnet,4,332,NaN,keyboard,keyboard,c30,4172_con_dnn_c30_keyboard_10_n04505470_9678.JPEG
alexnet,4,333,NaN,keyboard,keyboard,c30,4173_con_dnn_c30_keyboard_10_n03085013_10984.JPEG
alexnet,4,334,NaN,keyboard,keyboard,c30,4174_con_dnn_c30_keyboard_10_n03085013_20138.JPEG
alexnet,4,335,NaN,keyboard,keyboard,c30,4175_con_dnn_c30_keyboard_10_n03085013_6857.JPEG
alexnet,4,336,NaN,keyboard,keyboard,c30,4176_con_dnn_c30_keyboard_10_n03085013_3920.JPEG
alexnet,4,337,NaN,keyboard,keyboard,c30,4177_con_dnn_c30_keyboard_10_n04505470_2306.JPEG
alexnet,4,338,NaN,keyboard,keyboard,c30,4178_con_dnn_c30_keyboard_10_n03085013_23286.JPEG
alexnet,4,339,NaN,keyboard,keyboard,c30,4179_con_dnn_c30_keyboard_10_n03085013_11685.JPEG
alexnet,4,340,NaN,keyboard,keyboard,c30,4180_con_dnn_c30_keyboard_10_n03085013_919.JPEG
alexnet,4,341,NaN,elephant,elephant,c30,4181_con_dnn_c30_elephant_10_n02504458_8936.JPEG
alexnet,4,342,NaN,truck,elephant,c30,4182_con_dnn_c30_elephant_10_n02504013_6703.JPEG
alexnet,4,343,NaN,elephant,elephant,c30,4183_con_dnn_c30_elephant_10_n02504013_3626.JPEG
alexnet,4,344,NaN,bear,elephant,c30,4184_con_dnn_c30_elephant_10_n02504458_1506.JPEG
alexnet,4,345,NaN,elephant,elephant,c30,4185_con_dnn_c30_elephant_10_n02504458_2264.JPEG
alexnet,4,346,NaN,elephant,elephant,c30,4186_con_dnn_c30_elephant_10_n02504458_3160.JPEG
alexnet,4,347,NaN,dog,elephant,c30,4187_con_dnn_c30_elephant_10_n02504458_9876.JPEG
alexnet,4,348,NaN,dog,elephant,c30,4188_con_dnn_c30_elephant_10_n02504013_5783.JPEG
alexnet,4,349,NaN,elephant,elephant,c30,4189_con_dnn_c30_elephant_10_n02504013_7716.JPEG
alexnet,4,350,NaN,elephant,elephant,c30,4190_con_dnn_c30_elephant_10_n02504458_6841.JPEG
alexnet,4,351,NaN,bicycle,bicycle,c30,4191_con_dnn_c30_bicycle_10_n03792782_7878.JPEG
alexnet,4,352,NaN,bicycle,bicycle,c30,4192_con_dnn_c30_bicycle_10_n02835271_10469.JPEG
alexnet,4,353,NaN,bicycle,bicycle,c30,4193_con_dnn_c30_bicycle_10_n03792782_26044.JPEG
alexnet,4,354,NaN,bicycle,bicycle,c30,4194_con_dnn_c30_bicycle_10_n02835271_18205.JPEG
alexnet,4,355,NaN,clock,bicycle,c30,4195_con_dnn_c30_bicycle_10_n03792782_15627.JPEG
alexnet,4,356,NaN,truck,bicycle,c30,4196_con_dnn_c30_bicycle_10_n03792782_46807.JPEG
alexnet,4,357,NaN,bicycle,bicycle,c30,4197_con_dnn_c30_bicycle_10_n02835271_24104.JPEG
alexnet,4,358,NaN,bicycle,bicycle,c30,4198_con_dnn_c30_bicycle_10_n02835271_749.JPEG
alexnet,4,359,NaN,knife,bicycle,c30,4199_con_dnn_c30_bicycle_10_n03792782_34271.JPEG
alexnet,4,360,NaN,bicycle,bicycle,c30,4200_con_dnn_c30_bicycle_10_n03792782_12258.JPEG
alexnet,4,361,NaN,airplane,airplane,c30,4201_con_dnn_c30_airplane_10_n02690373_8815.JPEG
alexnet,4,362,NaN,airplane,airplane,c30,4202_con_dnn_c30_airplane_10_n02690373_10931.JPEG
alexnet,4,363,NaN,airplane,airplane,c30,4203_con_dnn_c30_airplane_10_n02690373_1538.JPEG
alexnet,4,364,NaN,airplane,airplane,c30,4204_con_dnn_c30_airplane_10_n02690373_4591.JPEG
alexnet,4,365,NaN,airplane,airplane,c30,4205_con_dnn_c30_airplane_10_n02690373_2010.JPEG
alexnet,4,366,NaN,airplane,airplane,c30,4206_con_dnn_c30_airplane_10_n02690373_7908.JPEG
alexnet,4,367,NaN,airplane,airplane,c30,4207_con_dnn_c30_airplane_10_n02690373_19353.JPEG
alexnet,4,368,NaN,truck,airplane,c30,4208_con_dnn_c30_airplane_10_n02690373_10729.JPEG
alexnet,4,369,NaN,airplane,airplane,c30,4209_con_dnn_c30_airplane_10_n02690373_8813.JPEG
alexnet,4,370,NaN,airplane,airplane,c30,4210_con_dnn_c30_airplane_10_n02690373_7192.JPEG
alexnet,4,371,NaN,clock,clock,c30,4211_con_dnn_c30_clock_10_n04548280_5957.JPEG
alexnet,4,372,NaN,clock,clock,c30,4212_con_dnn_c30_clock_10_n03196217_2814.JPEG
alexnet,4,373,NaN,clock,clock,c30,4213_con_dnn_c30_clock_10_n02708093_1015.JPEG
alexnet,4,374,NaN,clock,clock,c30,4214_con_dnn_c30_clock_10_n02708093_4201.JPEG
alexnet,4,375,NaN,dog,clock,c30,4215_con_dnn_c30_clock_10_n02708093_1384.JPEG
alexnet,4,376,NaN,clock,clock,c30,4216_con_dnn_c30_clock_10_n03196217_4974.JPEG
alexnet,4,377,NaN,clock,clock,c30,4217_con_dnn_c30_clock_10_n03196217_5910.JPEG
alexnet,4,378,NaN,clock,clock,c30,4218_con_dnn_c30_clock_10_n03196217_3600.JPEG
alexnet,4,379,NaN,bottle,clock,c30,4219_con_dnn_c30_clock_10_n02708093_1231.JPEG
alexnet,4,380,NaN,clock,clock,c30,4220_con_dnn_c30_clock_10_n03196217_2488.JPEG
alexnet,4,381,NaN,bottle,oven,c30,4221_con_dnn_c30_oven_10_n04111531_5351.JPEG
alexnet,4,382,NaN,keyboard,oven,c30,4222_con_dnn_c30_oven_10_n04111531_3076.JPEG
alexnet,4,383,NaN,oven,oven,c30,4223_con_dnn_c30_oven_10_n04111531_6567.JPEG
alexnet,4,384,NaN,bottle,oven,c30,4224_con_dnn_c30_oven_10_n04111531_21208.JPEG
alexnet,4,385,NaN,truck,oven,c30,4225_con_dnn_c30_oven_10_n04111531_523.JPEG
alexnet,4,386,NaN,bottle,oven,c30,4226_con_dnn_c30_oven_10_n04111531_14055.JPEG
alexnet,4,387,NaN,chair,oven,c30,4227_con_dnn_c30_oven_10_n04111531_10974.JPEG
alexnet,4,388,NaN,oven,oven,c30,4228_con_dnn_c30_oven_10_n04111531_11669.JPEG
alexnet,4,389,NaN,oven,oven,c30,4229_con_dnn_c30_oven_10_n04111531_10064.JPEG
alexnet,4,390,NaN,oven,oven,c30,4230_con_dnn_c30_oven_10_n04111531_6393.JPEG
alexnet,4,391,NaN,chair,chair,c30,4231_con_dnn_c30_chair_10_n02791124_7067.JPEG
alexnet,4,392,NaN,chair,chair,c30,4232_con_dnn_c30_chair_10_n04099969_14962.JPEG
alexnet,4,393,NaN,chair,chair,c30,4233_con_dnn_c30_chair_10_n04429376_18215.JPEG
alexnet,4,394,NaN,chair,chair,c30,4234_con_dnn_c30_chair_10_n04429376_12972.JPEG
alexnet,4,395,NaN,chair,chair,c30,4235_con_dnn_c30_chair_10_n04099969_25086.JPEG
alexnet,4,396,NaN,chair,chair,c30,4236_con_dnn_c30_chair_10_n04429376_19459.JPEG
alexnet,4,397,NaN,chair,chair,c30,4237_con_dnn_c30_chair_10_n02791124_1888.JPEG
alexnet,4,398,NaN,chair,chair,c30,4238_con_dnn_c30_chair_10_n04099969_3436.JPEG
alexnet,4,399,NaN,chair,chair,c30,4239_con_dnn_c30_chair_10_n03376595_7172.JPEG
alexnet,4,400,NaN,chair,chair,c30,4240_con_dnn_c30_chair_10_n04429376_19717.JPEG
alexnet,4,401,NaN,bear,bear,c30,4241_con_dnn_c30_bear_10_n02134418_3648.JPEG
alexnet,4,402,NaN,dog,bear,c30,4242_con_dnn_c30_bear_10_n02134418_2521.JPEG
alexnet,4,403,NaN,bear,bear,c30,4243_con_dnn_c30_bear_10_n02134418_5231.JPEG
alexnet,4,404,NaN,bear,bear,c30,4244_con_dnn_c30_bear_10_n02133161_1952.JPEG
alexnet,4,405,NaN,bear,bear,c30,4245_con_dnn_c30_bear_10_n02132136_3003.JPEG
alexnet,4,406,NaN,bear,bear,c30,4246_con_dnn_c30_bear_10_n02132136_6378.JPEG
alexnet,4,407,NaN,elephant,bear,c30,4247_con_dnn_c30_bear_10_n02134418_1097.JPEG
alexnet,4,408,NaN,bear,bear,c30,4248_con_dnn_c30_bear_10_n02133161_1712.JPEG
alexnet,4,409,NaN,bear,bear,c30,4249_con_dnn_c30_bear_10_n02134084_7123.JPEG
alexnet,4,410,NaN,bear,bear,c30,4250_con_dnn_c30_bear_10_n02134084_6049.JPEG
alexnet,4,411,NaN,boat,boat,c30,4251_con_dnn_c30_boat_10_n03662601_25743.JPEG
alexnet,4,412,NaN,boat,boat,c30,4252_con_dnn_c30_boat_10_n03344393_14588.JPEG
alexnet,4,413,NaN,boat,boat,c30,4253_con_dnn_c30_boat_10_n04273569_13587.JPEG
alexnet,4,414,NaN,boat,boat,c30,4254_con_dnn_c30_boat_10_n02951358_8551.JPEG
alexnet,4,415,NaN,boat,boat,c30,4255_con_dnn_c30_boat_10_n04273569_16679.JPEG
alexnet,4,416,NaN,boat,boat,c30,4256_con_dnn_c30_boat_10_n04612504_18192.JPEG
alexnet,4,417,NaN,boat,boat,c30,4257_con_dnn_c30_boat_10_n03344393_6936.JPEG
alexnet,4,418,NaN,boat,boat,c30,4258_con_dnn_c30_boat_10_n04612504_33307.JPEG
alexnet,4,419,NaN,boat,boat,c30,4259_con_dnn_c30_boat_10_n04273569_8189.JPEG
alexnet,4,420,NaN,boat,boat,c30,4260_con_dnn_c30_boat_10_n03662601_840.JPEG
alexnet,4,421,NaN,bottle,cat,c30,4261_con_dnn_c30_cat_10_n02123597_6964.JPEG
alexnet,4,422,NaN,dog,cat,c30,4262_con_dnn_c30_cat_10_n02123159_3676.JPEG
alexnet,4,423,NaN,cat,cat,c30,4263_con_dnn_c30_cat_10_n02124075_7984.JPEG
alexnet,4,424,NaN,cat,cat,c30,4264_con_dnn_c30_cat_10_n02123159_1794.JPEG
alexnet,4,425,NaN,dog,cat,c30,4265_con_dnn_c30_cat_10_n02125311_20238.JPEG
alexnet,4,426,NaN,bottle,cat,c30,4266_con_dnn_c30_cat_10_n02123597_14233.JPEG
alexnet,4,427,NaN,cat,cat,c30,4267_con_dnn_c30_cat_10_n02125311_6818.JPEG
alexnet,4,428,NaN,cat,cat,c30,4268_con_dnn_c30_cat_10_n02123159_3484.JPEG
alexnet,4,429,NaN,cat,cat,c30,4269_con_dnn_c30_cat_10_n02125311_41146.JPEG
alexnet,4,430,NaN,cat,cat,c30,4270_con_dnn_c30_cat_10_n02123159_12734.JPEG
alexnet,4,431,NaN,bottle,bottle,c30,4271_con_dnn_c30_bottle_10_n04560804_6525.JPEG
alexnet,4,432,NaN,bottle,bottle,c30,4272_con_dnn_c30_bottle_10_n04557648_4066.JPEG
alexnet,4,433,NaN,bottle,bottle,c30,4273_con_dnn_c30_bottle_10_n03983396_16741.JPEG
alexnet,4,434,NaN,bottle,bottle,c30,4274_con_dnn_c30_bottle_10_n03983396_4977.JPEG
alexnet,4,435,NaN,bottle,bottle,c30,4275_con_dnn_c30_bottle_10_n04591713_16442.JPEG
alexnet,4,436,NaN,bottle,bottle,c30,4276_con_dnn_c30_bottle_10_n03937543_3787.JPEG
alexnet,4,437,NaN,clock,bottle,c30,4277_con_dnn_c30_bottle_10_n04560804_1908.JPEG
alexnet,4,438,NaN,knife,bottle,c30,4278_con_dnn_c30_bottle_10_n03937543_5688.JPEG
alexnet,4,439,NaN,bottle,bottle,c30,4279_con_dnn_c30_bottle_10_n03983396_18783.JPEG
alexnet,4,440,NaN,bottle,bottle,c30,4280_con_dnn_c30_bottle_10_n03937543_1799.JPEG
alexnet,4,441,NaN,truck,truck,c30,4281_con_dnn_c30_truck_10_n03417042_679.JPEG
alexnet,4,442,NaN,truck,truck,c30,4282_con_dnn_c30_truck_10_n03796401_10979.JPEG
alexnet,4,443,NaN,bottle,truck,c30,4283_con_dnn_c30_truck_10_n03796401_13349.JPEG
alexnet,4,444,NaN,truck,truck,c30,4284_con_dnn_c30_truck_10_n04467665_28717.JPEG
alexnet,4,445,NaN,truck,truck,c30,4285_con_dnn_c30_truck_10_n03796401_2186.JPEG
alexnet,4,446,NaN,chair,truck,c30,4286_con_dnn_c30_truck_10_n03417042_27586.JPEG
alexnet,4,447,NaN,truck,truck,c30,4287_con_dnn_c30_truck_10_n04467665_65759.JPEG
alexnet,4,448,NaN,truck,truck,c30,4288_con_dnn_c30_truck_10_n04467665_71927.JPEG
alexnet,4,449,NaN,truck,truck,c30,4289_con_dnn_c30_truck_10_n03417042_12168.JPEG
alexnet,4,450,NaN,truck,truck,c30,4290_con_dnn_c30_truck_10_n03796401_4899.JPEG
alexnet,4,451,NaN,truck,car,c30,4291_con_dnn_c30_car_10_n04285008_9107.JPEG
alexnet,4,452,NaN,car,car,c30,4292_con_dnn_c30_car_10_n04285008_11446.JPEG
alexnet,4,453,NaN,truck,car,c30,4293_con_dnn_c30_car_10_n04285008_882.JPEG
alexnet,4,454,NaN,truck,car,c30,4294_con_dnn_c30_car_10_n04285008_6036.JPEG
alexnet,4,455,NaN,car,car,c30,4295_con_dnn_c30_car_10_n03100240_2235.JPEG
alexnet,4,456,NaN,car,car,c30,4296_con_dnn_c30_car_10_n02814533_2527.JPEG
alexnet,4,457,NaN,car,car,c30,4297_con_dnn_c30_car_10_n02814533_65175.JPEG
alexnet,4,458,NaN,truck,car,c30,4298_con_dnn_c30_car_10_n02814533_34734.JPEG
alexnet,4,459,NaN,car,car,c30,4299_con_dnn_c30_car_10_n03100240_17555.JPEG
alexnet,4,460,NaN,car,car,c30,4300_con_dnn_c30_car_10_n02814533_75551.JPEG
alexnet,4,461,NaN,bird,bird,c30,4301_con_dnn_c30_bird_10_n01860187_34328.JPEG
alexnet,4,462,NaN,bottle,bird,c30,4302_con_dnn_c30_bird_10_n02002724_1890.JPEG
alexnet,4,463,NaN,bottle,bird,c30,4303_con_dnn_c30_bird_10_n01855032_5415.JPEG
alexnet,4,464,NaN,chair,bird,c30,4304_con_dnn_c30_bird_10_n02002556_7502.JPEG
alexnet,4,465,NaN,bird,bird,c30,4305_con_dnn_c30_bird_10_n02009912_7172.JPEG
alexnet,4,466,NaN,elephant,bird,c30,4306_con_dnn_c30_bird_10_n01534433_14629.JPEG
alexnet,4,467,NaN,bottle,bird,c30,4307_con_dnn_c30_bird_10_n01560419_9034.JPEG
alexnet,4,468,NaN,bird,bird,c30,4308_con_dnn_c30_bird_10_n01833805_4111.JPEG
alexnet,4,469,NaN,bird,bird,c30,4309_con_dnn_c30_bird_10_n02009912_5969.JPEG
alexnet,4,470,NaN,dog,bird,c30,4310_con_dnn_c30_bird_10_n02056570_9358.JPEG
alexnet,4,471,NaN,dog,dog,c30,4311_con_dnn_c30_dog_10_n02092339_2195.JPEG
alexnet,4,472,NaN,dog,dog,c30,4312_con_dnn_c30_dog_10_n02104365_6354.JPEG
alexnet,4,473,NaN,dog,dog,c30,4313_con_dnn_c30_dog_10_n02088632_8848.JPEG
alexnet,4,474,NaN,cat,dog,c30,4314_con_dnn_c30_dog_10_n02093859_4119.JPEG
alexnet,4,475,NaN,dog,dog,c30,4315_con_dnn_c30_dog_10_n02092339_576.JPEG
alexnet,4,476,NaN,dog,dog,c30,4316_con_dnn_c30_dog_10_n02090721_624.JPEG
alexnet,4,477,NaN,bottle,dog,c30,4317_con_dnn_c30_dog_10_n02105251_7289.JPEG
alexnet,4,478,NaN,dog,dog,c30,4318_con_dnn_c30_dog_10_n02097047_6774.JPEG
alexnet,4,479,NaN,dog,dog,c30,4319_con_dnn_c30_dog_10_n02093428_2214.JPEG
alexnet,4,480,NaN,dog,dog,c30,4320_con_dnn_c30_dog_10_n02088094_11432.JPEG
alexnet,4,481,NaN,bottle,knife,c15,4321_con_dnn_c15_knife_10_n03041632_29961.JPEG
alexnet,4,482,NaN,dog,knife,c15,4322_con_dnn_c15_knife_10_n03041632_25603.JPEG
alexnet,4,483,NaN,bottle,knife,c15,4323_con_dnn_c15_knife_10_n03041632_36907.JPEG
alexnet,4,484,NaN,bottle,knife,c15,4324_con_dnn_c15_knife_10_n03041632_52371.JPEG
alexnet,4,485,NaN,bottle,knife,c15,4325_con_dnn_c15_knife_10_n03041632_43634.JPEG
alexnet,4,486,NaN,bottle,knife,c15,4326_con_dnn_c15_knife_10_n03041632_27022.JPEG
alexnet,4,487,NaN,bottle,knife,c15,4327_con_dnn_c15_knife_10_n03041632_56436.JPEG
alexnet,4,488,NaN,bottle,knife,c15,4328_con_dnn_c15_knife_10_n03041632_8151.JPEG
alexnet,4,489,NaN,knife,knife,c15,4329_con_dnn_c15_knife_10_n03041632_17859.JPEG
alexnet,4,490,NaN,bottle,knife,c15,4330_con_dnn_c15_knife_10_n03041632_33198.JPEG
alexnet,4,491,NaN,keyboard,keyboard,c15,4331_con_dnn_c15_keyboard_10_n04505470_810.JPEG
alexnet,4,492,NaN,bear,keyboard,c15,4332_con_dnn_c15_keyboard_10_n04505470_2055.JPEG
alexnet,4,493,NaN,keyboard,keyboard,c15,4333_con_dnn_c15_keyboard_10_n04505470_4166.JPEG
alexnet,4,494,NaN,keyboard,keyboard,c15,4334_con_dnn_c15_keyboard_10_n04505470_1118.JPEG
alexnet,4,495,NaN,bear,keyboard,c15,4335_con_dnn_c15_keyboard_10_n04505470_430.JPEG
alexnet,4,496,NaN,keyboard,keyboard,c15,4336_con_dnn_c15_keyboard_10_n04505470_5042.JPEG
alexnet,4,497,NaN,keyboard,keyboard,c15,4337_con_dnn_c15_keyboard_10_n03085013_19607.JPEG
alexnet,4,498,NaN,bear,keyboard,c15,4338_con_dnn_c15_keyboard_10_n04505470_4109.JPEG
alexnet,4,499,NaN,keyboard,keyboard,c15,4339_con_dnn_c15_keyboard_10_n03085013_9209.JPEG
alexnet,4,500,NaN,keyboard,keyboard,c15,4340_con_dnn_c15_keyboard_10_n04505470_7002.JPEG
alexnet,4,501,NaN,bear,elephant,c15,4341_con_dnn_c15_elephant_10_n02504458_4819.JPEG
alexnet,4,502,NaN,bottle,elephant,c15,4342_con_dnn_c15_elephant_10_n02504458_3378.JPEG
alexnet,4,503,NaN,boat,elephant,c15,4343_con_dnn_c15_elephant_10_n02504458_12101.JPEG
alexnet,4,504,NaN,bear,elephant,c15,4344_con_dnn_c15_elephant_10_n02504013_565.JPEG
alexnet,4,505,NaN,dog,elephant,c15,4345_con_dnn_c15_elephant_10_n02504013_6053.JPEG
alexnet,4,506,NaN,bear,elephant,c15,4346_con_dnn_c15_elephant_10_n02504458_585.JPEG
alexnet,4,507,NaN,bottle,elephant,c15,4347_con_dnn_c15_elephant_10_n02504458_8161.JPEG
alexnet,4,508,NaN,bear,elephant,c15,4348_con_dnn_c15_elephant_10_n02504458_12175.JPEG
alexnet,4,509,NaN,bottle,elephant,c15,4349_con_dnn_c15_elephant_10_n02504458_4725.JPEG
alexnet,4,510,NaN,bear,elephant,c15,4350_con_dnn_c15_elephant_10_n02504013_13385.JPEG
alexnet,4,511,NaN,chair,bicycle,c15,4351_con_dnn_c15_bicycle_10_n02835271_18276.JPEG
alexnet,4,512,NaN,bottle,bicycle,c15,4352_con_dnn_c15_bicycle_10_n03792782_11679.JPEG
alexnet,4,513,NaN,dog,bicycle,c15,4353_con_dnn_c15_bicycle_10_n03792782_1831.JPEG
alexnet,4,514,NaN,elephant,bicycle,c15,4354_con_dnn_c15_bicycle_10_n03792782_18299.JPEG
alexnet,4,515,NaN,boat,bicycle,c15,4355_con_dnn_c15_bicycle_10_n02835271_9633.JPEG
alexnet,4,516,NaN,boat,bicycle,c15,4356_con_dnn_c15_bicycle_10_n02835271_7526.JPEG
alexnet,4,517,NaN,bottle,bicycle,c15,4357_con_dnn_c15_bicycle_10_n03792782_4522.JPEG
alexnet,4,518,NaN,chair,bicycle,c15,4358_con_dnn_c15_bicycle_10_n03792782_42131.JPEG
alexnet,4,519,NaN,bicycle,bicycle,c15,4359_con_dnn_c15_bicycle_10_n02835271_4374.JPEG
alexnet,4,520,NaN,boat,bicycle,c15,4360_con_dnn_c15_bicycle_10_n02835271_19853.JPEG
alexnet,4,521,NaN,airplane,airplane,c15,4361_con_dnn_c15_airplane_10_n02690373_6455.JPEG
alexnet,4,522,NaN,airplane,airplane,c15,4362_con_dnn_c15_airplane_10_n02690373_852.JPEG
alexnet,4,523,NaN,bear,airplane,c15,4363_con_dnn_c15_airplane_10_n02690373_5029.JPEG
alexnet,4,524,NaN,airplane,airplane,c15,4364_con_dnn_c15_airplane_10_n02690373_8583.JPEG
alexnet,4,525,NaN,airplane,airplane,c15,4365_con_dnn_c15_airplane_10_n02690373_8619.JPEG
alexnet,4,526,NaN,airplane,airplane,c15,4366_con_dnn_c15_airplane_10_n02690373_9404.JPEG
alexnet,4,527,NaN,airplane,airplane,c15,4367_con_dnn_c15_airplane_10_n02690373_3818.JPEG
alexnet,4,528,NaN,airplane,airplane,c15,4368_con_dnn_c15_airplane_10_n02690373_18864.JPEG
alexnet,4,529,NaN,airplane,airplane,c15,4369_con_dnn_c15_airplane_10_n02690373_6104.JPEG
alexnet,4,530,NaN,bear,airplane,c15,4370_con_dnn_c15_airplane_10_n02690373_6854.JPEG
alexnet,4,531,NaN,clock,clock,c15,4371_con_dnn_c15_clock_10_n04548280_8980.JPEG
alexnet,4,532,NaN,clock,clock,c15,4372_con_dnn_c15_clock_10_n02708093_390.JPEG
alexnet,4,533,NaN,clock,clock,c15,4373_con_dnn_c15_clock_10_n04548280_2436.JPEG
alexnet,4,534,NaN,airplane,clock,c15,4374_con_dnn_c15_clock_10_n04548280_1023.JPEG
alexnet,4,535,NaN,boat,clock,c15,4375_con_dnn_c15_clock_10_n03196217_6293.JPEG
alexnet,4,536,NaN,clock,clock,c15,4376_con_dnn_c15_clock_10_n04548280_252.JPEG
alexnet,4,537,NaN,bottle,clock,c15,4377_con_dnn_c15_clock_10_n03196217_3735.JPEG
alexnet,4,538,NaN,clock,clock,c15,4378_con_dnn_c15_clock_10_n02708093_3365.JPEG
alexnet,4,539,NaN,clock,clock,c15,4379_con_dnn_c15_clock_10_n04548280_6200.JPEG
alexnet,4,540,NaN,clock,clock,c15,4380_con_dnn_c15_clock_10_n03196217_1804.JPEG
alexnet,4,541,NaN,chair,oven,c15,4381_con_dnn_c15_oven_10_n04111531_1752.JPEG
alexnet,4,542,NaN,chair,oven,c15,4382_con_dnn_c15_oven_10_n04111531_4826.JPEG
alexnet,4,543,NaN,bottle,oven,c15,4383_con_dnn_c15_oven_10_n04111531_4900.JPEG
alexnet,4,544,NaN,chair,oven,c15,4384_con_dnn_c15_oven_10_n04111531_11260.JPEG
alexnet,4,545,NaN,bear,oven,c15,4385_con_dnn_c15_oven_10_n04111531_4749.JPEG
alexnet,4,546,NaN,bottle,oven,c15,4386_con_dnn_c15_oven_10_n04111531_8687.JPEG
alexnet,4,547,NaN,bottle,oven,c15,4387_con_dnn_c15_oven_10_n04111531_13113.JPEG
alexnet,4,548,NaN,bottle,oven,c15,4388_con_dnn_c15_oven_10_n04111531_8305.JPEG
alexnet,4,549,NaN,clock,oven,c15,4389_con_dnn_c15_oven_10_n04111531_8959.JPEG
alexnet,4,550,NaN,chair,oven,c15,4390_con_dnn_c15_oven_10_n04111531_4113.JPEG
alexnet,4,551,NaN,bottle,chair,c15,4391_con_dnn_c15_chair_10_n02791124_3755.JPEG
alexnet,4,552,NaN,chair,chair,c15,4392_con_dnn_c15_chair_10_n04429376_25760.JPEG
alexnet,4,553,NaN,bottle,chair,c15,4393_con_dnn_c15_chair_10_n02791124_3570.JPEG
alexnet,4,554,NaN,bottle,chair,c15,4394_con_dnn_c15_chair_10_n04099969_1163.JPEG
alexnet,4,555,NaN,chair,chair,c15,4395_con_dnn_c15_chair_10_n03376595_88.JPEG
alexnet,4,556,NaN,chair,chair,c15,4396_con_dnn_c15_chair_10_n02791124_5754.JPEG
alexnet,4,557,NaN,bottle,chair,c15,4397_con_dnn_c15_chair_10_n04099969_13910.JPEG
alexnet,4,558,NaN,clock,chair,c15,4398_con_dnn_c15_chair_10_n02791124_3018.JPEG
alexnet,4,559,NaN,bird,chair,c15,4399_con_dnn_c15_chair_10_n02791124_2095.JPEG
alexnet,4,560,NaN,chair,chair,c15,4400_con_dnn_c15_chair_10_n04429376_18550.JPEG
alexnet,4,561,NaN,elephant,bear,c15,4401_con_dnn_c15_bear_10_n02134418_2943.JPEG
alexnet,4,562,NaN,bear,bear,c15,4402_con_dnn_c15_bear_10_n02134084_10275.JPEG
alexnet,4,563,NaN,bear,bear,c15,4403_con_dnn_c15_bear_10_n02133161_8455.JPEG
alexnet,4,564,NaN,boat,bear,c15,4404_con_dnn_c15_bear_10_n02133161_3915.JPEG
alexnet,4,565,NaN,bird,bear,c15,4405_con_dnn_c15_bear_10_n02132136_1528.JPEG
alexnet,4,566,NaN,bear,bear,c15,4406_con_dnn_c15_bear_10_n02133161_1702.JPEG
alexnet,4,567,NaN,bird,bear,c15,4407_con_dnn_c15_bear_10_n02134084_18990.JPEG
alexnet,4,568,NaN,truck,bear,c15,4408_con_dnn_c15_bear_10_n02134418_1218.JPEG
alexnet,4,569,NaN,bear,bear,c15,4409_con_dnn_c15_bear_10_n02134084_20605.JPEG
alexnet,4,570,NaN,bear,bear,c15,4410_con_dnn_c15_bear_10_n02134418_4584.JPEG
alexnet,4,571,NaN,boat,boat,c15,4411_con_dnn_c15_boat_10_n03662601_26435.JPEG
alexnet,4,572,NaN,airplane,boat,c15,4412_con_dnn_c15_boat_10_n03344393_3557.JPEG
alexnet,4,573,NaN,bird,boat,c15,4413_con_dnn_c15_boat_10_n03344393_7039.JPEG
alexnet,4,574,NaN,bear,boat,c15,4414_con_dnn_c15_boat_10_n03662601_16128.JPEG
alexnet,4,575,NaN,airplane,boat,c15,4415_con_dnn_c15_boat_10_n03344393_6914.JPEG
alexnet,4,576,NaN,boat,boat,c15,4416_con_dnn_c15_boat_10_n04612504_8284.JPEG
alexnet,4,577,NaN,boat,boat,c15,4417_con_dnn_c15_boat_10_n02951358_33918.JPEG
alexnet,4,578,NaN,boat,boat,c15,4418_con_dnn_c15_boat_10_n04273569_3348.JPEG
alexnet,4,579,NaN,boat,boat,c15,4419_con_dnn_c15_boat_10_n03662601_21346.JPEG
alexnet,4,580,NaN,bottle,boat,c15,4420_con_dnn_c15_boat_10_n04273569_13176.JPEG
alexnet,4,581,NaN,boat,cat,c15,4421_con_dnn_c15_cat_10_n02125311_77036.JPEG
alexnet,4,582,NaN,bear,cat,c15,4422_con_dnn_c15_cat_10_n02125311_25104.JPEG
alexnet,4,583,NaN,cat,cat,c15,4423_con_dnn_c15_cat_10_n02123597_7656.JPEG
alexnet,4,584,NaN,cat,cat,c15,4424_con_dnn_c15_cat_10_n02123394_7270.JPEG
alexnet,4,585,NaN,dog,cat,c15,4425_con_dnn_c15_cat_10_n02123045_101.JPEG
alexnet,4,586,NaN,cat,cat,c15,4426_con_dnn_c15_cat_10_n02125311_28635.JPEG
alexnet,4,587,NaN,bear,cat,c15,4427_con_dnn_c15_cat_10_n02123394_5938.JPEG
alexnet,4,588,NaN,dog,cat,c15,4428_con_dnn_c15_cat_10_n02124075_7806.JPEG
alexnet,4,589,NaN,bear,cat,c15,4429_con_dnn_c15_cat_10_n02123045_1529.JPEG
alexnet,4,590,NaN,cat,cat,c15,4430_con_dnn_c15_cat_10_n02125311_22174.JPEG
alexnet,4,591,NaN,bottle,bottle,c15,4431_con_dnn_c15_bottle_10_n02823428_6524.JPEG
alexnet,4,592,NaN,bottle,bottle,c15,4432_con_dnn_c15_bottle_10_n03983396_8573.JPEG
alexnet,4,593,NaN,bottle,bottle,c15,4433_con_dnn_c15_bottle_10_n04591713_7634.JPEG
alexnet,4,594,NaN,bottle,bottle,c15,4434_con_dnn_c15_bottle_10_n02823428_654.JPEG
alexnet,4,595,NaN,bottle,bottle,c15,4435_con_dnn_c15_bottle_10_n03937543_5519.JPEG
alexnet,4,596,NaN,bottle,bottle,c15,4436_con_dnn_c15_bottle_10_n02823428_5064.JPEG
alexnet,4,597,NaN,bottle,bottle,c15,4437_con_dnn_c15_bottle_10_n03937543_2870.JPEG
alexnet,4,598,NaN,bottle,bottle,c15,4438_con_dnn_c15_bottle_10_n04579145_412.JPEG
alexnet,4,599,NaN,bottle,bottle,c15,4439_con_dnn_c15_bottle_10_n03937543_5088.JPEG
alexnet,4,600,NaN,bottle,bottle,c15,4440_con_dnn_c15_bottle_10_n03983396_5032.JPEG
alexnet,4,601,NaN,truck,truck,c15,4441_con_dnn_c15_truck_10_n03796401_15046.JPEG
alexnet,4,602,NaN,truck,truck,c15,4442_con_dnn_c15_truck_10_n04467665_28135.JPEG
alexnet,4,603,NaN,truck,truck,c15,4443_con_dnn_c15_truck_10_n03417042_11452.JPEG
alexnet,4,604,NaN,boat,truck,c15,4444_con_dnn_c15_truck_10_n04467665_63829.JPEG
alexnet,4,605,NaN,truck,truck,c15,4445_con_dnn_c15_truck_10_n03417042_22297.JPEG
alexnet,4,606,NaN,truck,truck,c15,4446_con_dnn_c15_truck_10_n04467665_23847.JPEG
alexnet,4,607,NaN,bottle,truck,c15,4447_con_dnn_c15_truck_10_n03796401_9466.JPEG
alexnet,4,608,NaN,bottle,truck,c15,4448_con_dnn_c15_truck_10_n04467665_50903.JPEG
alexnet,4,609,NaN,truck,truck,c15,4449_con_dnn_c15_truck_10_n03796401_26284.JPEG
alexnet,4,610,NaN,truck,truck,c15,4450_con_dnn_c15_truck_10_n04467665_29863.JPEG
alexnet,4,611,NaN,car,car,c15,4451_con_dnn_c15_car_10_n02814533_6716.JPEG
alexnet,4,612,NaN,truck,car,c15,4452_con_dnn_c15_car_10_n02814533_95276.JPEG
alexnet,4,613,NaN,bottle,car,c15,4453_con_dnn_c15_car_10_n02814533_22292.JPEG
alexnet,4,614,NaN,car,car,c15,4454_con_dnn_c15_car_10_n03100240_14577.JPEG
alexnet,4,615,NaN,car,car,c15,4455_con_dnn_c15_car_10_n03100240_7206.JPEG
alexnet,4,616,NaN,keyboard,car,c15,4456_con_dnn_c15_car_10_n02814533_34713.JPEG
alexnet,4,617,NaN,car,car,c15,4457_con_dnn_c15_car_10_n03100240_6653.JPEG
alexnet,4,618,NaN,bottle,car,c15,4458_con_dnn_c15_car_10_n04285008_8102.JPEG
alexnet,4,619,NaN,car,car,c15,4459_con_dnn_c15_car_10_n03100240_22742.JPEG
alexnet,4,620,NaN,car,car,c15,4460_con_dnn_c15_car_10_n04285008_9841.JPEG
alexnet,4,621,NaN,bird,bird,c15,4461_con_dnn_c15_bird_10_n02009229_4744.JPEG
alexnet,4,622,NaN,bird,bird,c15,4462_con_dnn_c15_bird_10_n01829413_8148.JPEG
alexnet,4,623,NaN,bear,bird,c15,4463_con_dnn_c15_bird_10_n02011460_7130.JPEG
alexnet,4,624,NaN,bird,bird,c15,4464_con_dnn_c15_bird_10_n02025239_17942.JPEG
alexnet,4,625,NaN,bear,bird,c15,4465_con_dnn_c15_bird_10_n01514859_1048.JPEG
alexnet,4,626,NaN,bottle,bird,c15,4466_con_dnn_c15_bird_10_n02011460_2420.JPEG
alexnet,4,627,NaN,bird,bird,c15,4467_con_dnn_c15_bird_10_n02009229_3614.JPEG
alexnet,4,628,NaN,bird,bird,c15,4468_con_dnn_c15_bird_10_n02002556_7624.JPEG
alexnet,4,629,NaN,bird,bird,c15,4469_con_dnn_c15_bird_10_n02025239_1106.JPEG
alexnet,4,630,NaN,bird,bird,c15,4470_con_dnn_c15_bird_10_n01514859_6667.JPEG
alexnet,4,631,NaN,bottle,dog,c15,4471_con_dnn_c15_dog_10_n02107312_847.JPEG
alexnet,4,632,NaN,bear,dog,c15,4472_con_dnn_c15_dog_10_n02107683_4541.JPEG
alexnet,4,633,NaN,bottle,dog,c15,4473_con_dnn_c15_dog_10_n02112350_502.JPEG
alexnet,4,634,NaN,bear,dog,c15,4474_con_dnn_c15_dog_10_n02096585_9171.JPEG
alexnet,4,635,NaN,cat,dog,c15,4475_con_dnn_c15_dog_10_n02105855_10004.JPEG
alexnet,4,636,NaN,dog,dog,c15,4476_con_dnn_c15_dog_10_n02102040_7188.JPEG
alexnet,4,637,NaN,chair,dog,c15,4477_con_dnn_c15_dog_10_n02106382_241.JPEG
alexnet,4,638,NaN,bottle,dog,c15,4478_con_dnn_c15_dog_10_n02108915_3426.JPEG
alexnet,4,639,NaN,bottle,dog,c15,4479_con_dnn_c15_dog_10_n02109961_44878.JPEG
alexnet,4,640,NaN,dog,dog,c15,4480_con_dnn_c15_dog_10_n02106550_1049.JPEG
alexnet,4,641,NaN,bear,knife,c10,4481_con_dnn_c10_knife_10_n03041632_1661.JPEG
alexnet,4,642,NaN,knife,knife,c10,4482_con_dnn_c10_knife_10_n03041632_96345.JPEG
alexnet,4,643,NaN,boat,knife,c10,4483_con_dnn_c10_knife_10_n03041632_5911.JPEG
alexnet,4,644,NaN,cat,knife,c10,4484_con_dnn_c10_knife_10_n03041632_36277.JPEG
alexnet,4,645,NaN,bottle,knife,c10,4485_con_dnn_c10_knife_10_n03041632_21472.JPEG
alexnet,4,646,NaN,bottle,knife,c10,4486_con_dnn_c10_knife_10_n03041632_13424.JPEG
alexnet,4,647,NaN,chair,knife,c10,4487_con_dnn_c10_knife_10_n03041632_54603.JPEG
alexnet,4,648,NaN,bottle,knife,c10,4488_con_dnn_c10_knife_10_n03041632_22738.JPEG
alexnet,4,649,NaN,dog,knife,c10,4489_con_dnn_c10_knife_10_n03041632_11700.JPEG
alexnet,4,650,NaN,bottle,knife,c10,4490_con_dnn_c10_knife_10_n03041632_90125.JPEG
alexnet,4,651,NaN,bottle,keyboard,c10,4491_con_dnn_c10_keyboard_10_n04505470_9090.JPEG
alexnet,4,652,NaN,keyboard,keyboard,c10,4492_con_dnn_c10_keyboard_10_n04505470_3947.JPEG
alexnet,4,653,NaN,bottle,keyboard,c10,4493_con_dnn_c10_keyboard_10_n03085013_20620.JPEG
alexnet,4,654,NaN,bottle,keyboard,c10,4494_con_dnn_c10_keyboard_10_n04505470_10264.JPEG
alexnet,4,655,NaN,keyboard,keyboard,c10,4495_con_dnn_c10_keyboard_10_n04505470_4357.JPEG
alexnet,4,656,NaN,cat,keyboard,c10,4496_con_dnn_c10_keyboard_10_n03085013_3733.JPEG
alexnet,4,657,NaN,knife,keyboard,c10,4497_con_dnn_c10_keyboard_10_n04505470_2518.JPEG
alexnet,4,658,NaN,bottle,keyboard,c10,4498_con_dnn_c10_keyboard_10_n03085013_25568.JPEG
alexnet,4,659,NaN,bird,keyboard,c10,4499_con_dnn_c10_keyboard_10_n03085013_21048.JPEG
alexnet,4,660,NaN,chair,keyboard,c10,4500_con_dnn_c10_keyboard_10_n04505470_4898.JPEG
alexnet,4,661,NaN,bear,elephant,c10,4501_con_dnn_c10_elephant_10_n02504458_5131.JPEG
alexnet,4,662,NaN,bird,elephant,c10,4502_con_dnn_c10_elephant_10_n02504458_3491.JPEG
alexnet,4,663,NaN,bear,elephant,c10,4503_con_dnn_c10_elephant_10_n02504458_8060.JPEG
alexnet,4,664,NaN,bear,elephant,c10,4504_con_dnn_c10_elephant_10_n02504013_2438.JPEG
alexnet,4,665,NaN,boat,elephant,c10,4505_con_dnn_c10_elephant_10_n02504013_6177.JPEG
alexnet,4,666,NaN,boat,elephant,c10,4506_con_dnn_c10_elephant_10_n02504458_8219.JPEG
alexnet,4,667,NaN,bear,elephant,c10,4507_con_dnn_c10_elephant_10_n02504458_485.JPEG
alexnet,4,668,NaN,bear,elephant,c10,4508_con_dnn_c10_elephant_10_n02504013_5397.JPEG
alexnet,4,669,NaN,bottle,elephant,c10,4509_con_dnn_c10_elephant_10_n02504013_9257.JPEG
alexnet,4,670,NaN,bear,elephant,c10,4510_con_dnn_c10_elephant_10_n02504013_7139.JPEG
alexnet,4,671,NaN,bottle,bicycle,c10,4511_con_dnn_c10_bicycle_10_n02835271_12105.JPEG
alexnet,4,672,NaN,chair,bicycle,c10,4512_con_dnn_c10_bicycle_10_n02835271_13551.JPEG
alexnet,4,673,NaN,bird,bicycle,c10,4513_con_dnn_c10_bicycle_10_n02835271_3791.JPEG
alexnet,4,674,NaN,chair,bicycle,c10,4514_con_dnn_c10_bicycle_10_n03792782_11115.JPEG
alexnet,4,675,NaN,bottle,bicycle,c10,4515_con_dnn_c10_bicycle_10_n03792782_6613.JPEG
alexnet,4,676,NaN,bottle,bicycle,c10,4516_con_dnn_c10_bicycle_10_n02835271_24630.JPEG
alexnet,4,677,NaN,boat,bicycle,c10,4517_con_dnn_c10_bicycle_10_n03792782_3754.JPEG
alexnet,4,678,NaN,dog,bicycle,c10,4518_con_dnn_c10_bicycle_10_n03792782_11297.JPEG
alexnet,4,679,NaN,boat,bicycle,c10,4519_con_dnn_c10_bicycle_10_n02835271_5678.JPEG
alexnet,4,680,NaN,bicycle,bicycle,c10,4520_con_dnn_c10_bicycle_10_n02835271_6680.JPEG
alexnet,4,681,NaN,bear,airplane,c10,4521_con_dnn_c10_airplane_10_n02690373_4107.JPEG
alexnet,4,682,NaN,clock,airplane,c10,4522_con_dnn_c10_airplane_10_n02690373_9680.JPEG
alexnet,4,683,NaN,bear,airplane,c10,4523_con_dnn_c10_airplane_10_n02690373_1451.JPEG
alexnet,4,684,NaN,airplane,airplane,c10,4524_con_dnn_c10_airplane_10_n02690373_2162.JPEG
alexnet,4,685,NaN,airplane,airplane,c10,4525_con_dnn_c10_airplane_10_n02690373_5253.JPEG
alexnet,4,686,NaN,bear,airplane,c10,4526_con_dnn_c10_airplane_10_n02690373_16250.JPEG
alexnet,4,687,NaN,airplane,airplane,c10,4527_con_dnn_c10_airplane_10_n02690373_5141.JPEG
alexnet,4,688,NaN,airplane,airplane,c10,4528_con_dnn_c10_airplane_10_n02690373_6314.JPEG
alexnet,4,689,NaN,airplane,airplane,c10,4529_con_dnn_c10_airplane_10_n02690373_13318.JPEG
alexnet,4,690,NaN,airplane,airplane,c10,4530_con_dnn_c10_airplane_10_n02690373_16986.JPEG
alexnet,4,691,NaN,bird,clock,c10,4531_con_dnn_c10_clock_10_n03196217_43.JPEG
alexnet,4,692,NaN,clock,clock,c10,4532_con_dnn_c10_clock_10_n02708093_1344.JPEG
alexnet,4,693,NaN,bottle,clock,c10,4533_con_dnn_c10_clock_10_n04548280_2313.JPEG
alexnet,4,694,NaN,knife,clock,c10,4534_con_dnn_c10_clock_10_n04548280_1119.JPEG
alexnet,4,695,NaN,bear,clock,c10,4535_con_dnn_c10_clock_10_n02708093_3262.JPEG
alexnet,4,696,NaN,clock,clock,c10,4536_con_dnn_c10_clock_10_n04548280_1200.JPEG
alexnet,4,697,NaN,bottle,clock,c10,4537_con_dnn_c10_clock_10_n03196217_1809.JPEG
alexnet,4,698,NaN,clock,clock,c10,4538_con_dnn_c10_clock_10_n02708093_579.JPEG
alexnet,4,699,NaN,bottle,clock,c10,4539_con_dnn_c10_clock_10_n03196217_1.JPEG
alexnet,4,700,NaN,clock,clock,c10,4540_con_dnn_c10_clock_10_n04548280_2589.JPEG
alexnet,4,701,NaN,bottle,oven,c10,4541_con_dnn_c10_oven_10_n04111531_615.JPEG
alexnet,4,702,NaN,oven,oven,c10,4542_con_dnn_c10_oven_10_n04111531_9613.JPEG
alexnet,4,703,NaN,bird,oven,c10,4543_con_dnn_c10_oven_10_n04111531_4685.JPEG
alexnet,4,704,NaN,bottle,oven,c10,4544_con_dnn_c10_oven_10_n04111531_15735.JPEG
alexnet,4,705,NaN,bird,oven,c10,4545_con_dnn_c10_oven_10_n04111531_2473.JPEG
alexnet,4,706,NaN,airplane,oven,c10,4546_con_dnn_c10_oven_10_n04111531_13691.JPEG
alexnet,4,707,NaN,bear,oven,c10,4547_con_dnn_c10_oven_10_n04111531_12729.JPEG
alexnet,4,708,NaN,oven,oven,c10,4548_con_dnn_c10_oven_10_n04111531_10640.JPEG
alexnet,4,709,NaN,clock,oven,c10,4549_con_dnn_c10_oven_10_n04111531_2462.JPEG
alexnet,4,710,NaN,bear,oven,c10,4550_con_dnn_c10_oven_10_n04111531_16670.JPEG
alexnet,4,711,NaN,chair,chair,c10,4551_con_dnn_c10_chair_10_n03376595_4190.JPEG
alexnet,4,712,NaN,truck,chair,c10,4552_con_dnn_c10_chair_10_n02791124_3310.JPEG
alexnet,4,713,NaN,chair,chair,c10,4553_con_dnn_c10_chair_10_n03376595_53.JPEG
alexnet,4,714,NaN,chair,chair,c10,4554_con_dnn_c10_chair_10_n04099969_38211.JPEG
alexnet,4,715,NaN,chair,chair,c10,4555_con_dnn_c10_chair_10_n04429376_27560.JPEG
alexnet,4,716,NaN,chair,chair,c10,4556_con_dnn_c10_chair_10_n04099969_18339.JPEG
alexnet,4,717,NaN,bottle,chair,c10,4557_con_dnn_c10_chair_10_n04429376_7077.JPEG
alexnet,4,718,NaN,bottle,chair,c10,4558_con_dnn_c10_chair_10_n04429376_28082.JPEG
alexnet,4,719,NaN,bottle,chair,c10,4559_con_dnn_c10_chair_10_n03376595_6721.JPEG
alexnet,4,720,NaN,bottle,chair,c10,4560_con_dnn_c10_chair_10_n03376595_2368.JPEG
alexnet,4,721,NaN,bear,bear,c10,4561_con_dnn_c10_bear_10_n02134418_2649.JPEG
alexnet,4,722,NaN,bear,bear,c10,4562_con_dnn_c10_bear_10_n02132136_8033.JPEG
alexnet,4,723,NaN,bear,bear,c10,4563_con_dnn_c10_bear_10_n02132136_16010.JPEG
alexnet,4,724,NaN,bear,bear,c10,4564_con_dnn_c10_bear_10_n02132136_3391.JPEG
alexnet,4,725,NaN,boat,bear,c10,4565_con_dnn_c10_bear_10_n02134418_5480.JPEG
alexnet,4,726,NaN,bear,bear,c10,4566_con_dnn_c10_bear_10_n02132136_8090.JPEG
alexnet,4,727,NaN,bear,bear,c10,4567_con_dnn_c10_bear_10_n02132136_6940.JPEG
alexnet,4,728,NaN,bear,bear,c10,4568_con_dnn_c10_bear_10_n02134418_6129.JPEG
alexnet,4,729,NaN,bird,bear,c10,4569_con_dnn_c10_bear_10_n02134084_23061.JPEG
alexnet,4,730,NaN,boat,bear,c10,4570_con_dnn_c10_bear_10_n02133161_4758.JPEG
alexnet,4,731,NaN,boat,boat,c10,4571_con_dnn_c10_boat_10_n02951358_6381.JPEG
alexnet,4,732,NaN,bottle,boat,c10,4572_con_dnn_c10_boat_10_n04273569_17942.JPEG
alexnet,4,733,NaN,boat,boat,c10,4573_con_dnn_c10_boat_10_n02951358_12627.JPEG
alexnet,4,734,NaN,bear,boat,c10,4574_con_dnn_c10_boat_10_n02951358_13781.JPEG
alexnet,4,735,NaN,boat,boat,c10,4575_con_dnn_c10_boat_10_n02951358_853.JPEG
alexnet,4,736,NaN,bird,boat,c10,4576_con_dnn_c10_boat_10_n03662601_1604.JPEG
alexnet,4,737,NaN,bear,boat,c10,4577_con_dnn_c10_boat_10_n03662601_9069.JPEG
alexnet,4,738,NaN,bird,boat,c10,4578_con_dnn_c10_boat_10_n03662601_7626.JPEG
alexnet,4,739,NaN,boat,boat,c10,4579_con_dnn_c10_boat_10_n03662601_13184.JPEG
alexnet,4,740,NaN,bear,boat,c10,4580_con_dnn_c10_boat_10_n03662601_17665.JPEG
alexnet,4,741,NaN,cat,cat,c10,4581_con_dnn_c10_cat_10_n02123394_3889.JPEG
alexnet,4,742,NaN,bear,cat,c10,4582_con_dnn_c10_cat_10_n02125311_24813.JPEG
alexnet,4,743,NaN,boat,cat,c10,4583_con_dnn_c10_cat_10_n02123159_8246.JPEG
alexnet,4,744,NaN,cat,cat,c10,4584_con_dnn_c10_cat_10_n02123597_1940.JPEG
alexnet,4,745,NaN,bird,cat,c10,4585_con_dnn_c10_cat_10_n02123159_7555.JPEG
alexnet,4,746,NaN,bird,cat,c10,4586_con_dnn_c10_cat_10_n02123045_4300.JPEG
alexnet,4,747,NaN,bear,cat,c10,4587_con_dnn_c10_cat_10_n02124075_15301.JPEG
alexnet,4,748,NaN,bear,cat,c10,4588_con_dnn_c10_cat_10_n02123159_7112.JPEG
alexnet,4,749,NaN,bird,cat,c10,4589_con_dnn_c10_cat_10_n02125311_4404.JPEG
alexnet,4,750,NaN,airplane,cat,c10,4590_con_dnn_c10_cat_10_n02123394_3872.JPEG
alexnet,4,751,NaN,bottle,bottle,c10,4591_con_dnn_c10_bottle_10_n04579145_198.JPEG
alexnet,4,752,NaN,bottle,bottle,c10,4592_con_dnn_c10_bottle_10_n04560804_2002.JPEG
alexnet,4,753,NaN,bottle,bottle,c10,4593_con_dnn_c10_bottle_10_n02823428_5905.JPEG
alexnet,4,754,NaN,bottle,bottle,c10,4594_con_dnn_c10_bottle_10_n04560804_20716.JPEG
alexnet,4,755,NaN,bottle,bottle,c10,4595_con_dnn_c10_bottle_10_n04557648_66.JPEG
alexnet,4,756,NaN,bottle,bottle,c10,4596_con_dnn_c10_bottle_10_n04591713_5945.JPEG
alexnet,4,757,NaN,bottle,bottle,c10,4597_con_dnn_c10_bottle_10_n04557648_687.JPEG
alexnet,4,758,NaN,bottle,bottle,c10,4598_con_dnn_c10_bottle_10_n03983396_10906.JPEG
alexnet,4,759,NaN,bottle,bottle,c10,4599_con_dnn_c10_bottle_10_n04591713_1879.JPEG
alexnet,4,760,NaN,bottle,bottle,c10,4600_con_dnn_c10_bottle_10_n04591713_8711.JPEG
alexnet,4,761,NaN,truck,truck,c10,4601_con_dnn_c10_truck_10_n03417042_12711.JPEG
alexnet,4,762,NaN,bear,truck,c10,4602_con_dnn_c10_truck_10_n03417042_4016.JPEG
alexnet,4,763,NaN,boat,truck,c10,4603_con_dnn_c10_truck_10_n04467665_41825.JPEG
alexnet,4,764,NaN,boat,truck,c10,4604_con_dnn_c10_truck_10_n03417042_8746.JPEG
alexnet,4,765,NaN,truck,truck,c10,4605_con_dnn_c10_truck_10_n03417042_2633.JPEG
alexnet,4,766,NaN,bottle,truck,c10,4606_con_dnn_c10_truck_10_n04467665_58570.JPEG
alexnet,4,767,NaN,truck,truck,c10,4607_con_dnn_c10_truck_10_n03417042_17623.JPEG
alexnet,4,768,NaN,truck,truck,c10,4608_con_dnn_c10_truck_10_n04467665_41.JPEG
alexnet,4,769,NaN,boat,truck,c10,4609_con_dnn_c10_truck_10_n03796401_7495.JPEG
alexnet,4,770,NaN,truck,truck,c10,4610_con_dnn_c10_truck_10_n03417042_4095.JPEG
alexnet,4,771,NaN,bear,car,c10,4611_con_dnn_c10_car_10_n03100240_17108.JPEG
alexnet,4,772,NaN,car,car,c10,4612_con_dnn_c10_car_10_n03100240_18967.JPEG
alexnet,4,773,NaN,car,car,c10,4613_con_dnn_c10_car_10_n03100240_8547.JPEG
alexnet,4,774,NaN,bottle,car,c10,4614_con_dnn_c10_car_10_n02814533_50769.JPEG
alexnet,4,775,NaN,car,car,c10,4615_con_dnn_c10_car_10_n04285008_4024.JPEG
alexnet,4,776,NaN,car,car,c10,4616_con_dnn_c10_car_10_n03100240_9641.JPEG
alexnet,4,777,NaN,car,car,c10,4617_con_dnn_c10_car_10_n02814533_37256.JPEG
alexnet,4,778,NaN,knife,car,c10,4618_con_dnn_c10_car_10_n02814533_16431.JPEG
alexnet,4,779,NaN,dog,car,c10,4619_con_dnn_c10_car_10_n03100240_15693.JPEG
alexnet,4,780,NaN,bottle,car,c10,4620_con_dnn_c10_car_10_n02814533_5237.JPEG
alexnet,4,781,NaN,bird,bird,c10,4621_con_dnn_c10_bird_10_n02051845_42089.JPEG
alexnet,4,782,NaN,boat,bird,c10,4622_con_dnn_c10_bird_10_n01558993_2123.JPEG
alexnet,4,783,NaN,bear,bird,c10,4623_con_dnn_c10_bird_10_n01558993_3757.JPEG
alexnet,4,784,NaN,knife,bird,c10,4624_con_dnn_c10_bird_10_n01819313_4114.JPEG
alexnet,4,785,NaN,bird,bird,c10,4625_con_dnn_c10_bird_10_n01796340_2073.JPEG
alexnet,4,786,NaN,boat,bird,c10,4626_con_dnn_c10_bird_10_n01614925_18338.JPEG
alexnet,4,787,NaN,boat,bird,c10,4627_con_dnn_c10_bird_10_n01582220_4127.JPEG
alexnet,4,788,NaN,bird,bird,c10,4628_con_dnn_c10_bird_10_n02002724_5286.JPEG
alexnet,4,789,NaN,bird,bird,c10,4629_con_dnn_c10_bird_10_n01560419_10128.JPEG
alexnet,4,790,NaN,bird,bird,c10,4630_con_dnn_c10_bird_10_n01824575_2061.JPEG
alexnet,4,791,NaN,dog,dog,c10,4631_con_dnn_c10_dog_10_n02112018_6691.JPEG
alexnet,4,792,NaN,bear,dog,c10,4632_con_dnn_c10_dog_10_n02113712_9.JPEG
alexnet,4,793,NaN,bottle,dog,c10,4633_con_dnn_c10_dog_10_n02094433_1851.JPEG
alexnet,4,794,NaN,bear,dog,c10,4634_con_dnn_c10_dog_10_n02097209_2347.JPEG
alexnet,4,795,NaN,bird,dog,c10,4635_con_dnn_c10_dog_10_n02093256_1974.JPEG
alexnet,4,796,NaN,boat,dog,c10,4636_con_dnn_c10_dog_10_n02090622_4710.JPEG
alexnet,4,797,NaN,bear,dog,c10,4637_con_dnn_c10_dog_10_n02093256_1538.JPEG
alexnet,4,798,NaN,dog,dog,c10,4638_con_dnn_c10_dog_10_n02109961_25550.JPEG
alexnet,4,799,NaN,bear,dog,c10,4639_con_dnn_c10_dog_10_n02106662_22910.JPEG
alexnet,4,800,NaN,dog,dog,c10,4640_con_dnn_c10_dog_10_n02110958_2198.JPEG
alexnet,4,801,NaN,boat,knife,c05,4641_con_dnn_c05_knife_10_n03041632_34505.JPEG
alexnet,4,802,NaN,airplane,knife,c05,4642_con_dnn_c05_knife_10_n03041632_33424.JPEG
alexnet,4,803,NaN,airplane,knife,c05,4643_con_dnn_c05_knife_10_n03041632_11495.JPEG
alexnet,4,804,NaN,bear,knife,c05,4644_con_dnn_c05_knife_10_n03041632_10263.JPEG
alexnet,4,805,NaN,bear,knife,c05,4645_con_dnn_c05_knife_10_n03041632_7982.JPEG
alexnet,4,806,NaN,bear,knife,c05,4646_con_dnn_c05_knife_10_n03041632_289.JPEG
alexnet,4,807,NaN,airplane,knife,c05,4647_con_dnn_c05_knife_10_n03041632_32774.JPEG
alexnet,4,808,NaN,airplane,knife,c05,4648_con_dnn_c05_knife_10_n03041632_31483.JPEG
alexnet,4,809,NaN,bear,knife,c05,4649_con_dnn_c05_knife_10_n03041632_48151.JPEG
alexnet,4,810,NaN,bear,knife,c05,4650_con_dnn_c05_knife_10_n03041632_4305.JPEG
alexnet,4,811,NaN,bear,keyboard,c05,4651_con_dnn_c05_keyboard_10_n03085013_19908.JPEG
alexnet,4,812,NaN,bottle,keyboard,c05,4652_con_dnn_c05_keyboard_10_n04505470_1351.JPEG
alexnet,4,813,NaN,keyboard,keyboard,c05,4653_con_dnn_c05_keyboard_10_n04505470_4379.JPEG
alexnet,4,814,NaN,bottle,keyboard,c05,4654_con_dnn_c05_keyboard_10_n03085013_11854.JPEG
alexnet,4,815,NaN,keyboard,keyboard,c05,4655_con_dnn_c05_keyboard_10_n04505470_6884.JPEG
alexnet,4,816,NaN,airplane,keyboard,c05,4656_con_dnn_c05_keyboard_10_n04505470_4925.JPEG
alexnet,4,817,NaN,bear,keyboard,c05,4657_con_dnn_c05_keyboard_10_n04505470_10055.JPEG
alexnet,4,818,NaN,chair,keyboard,c05,4658_con_dnn_c05_keyboard_10_n03085013_4542.JPEG
alexnet,4,819,NaN,bear,keyboard,c05,4659_con_dnn_c05_keyboard_10_n04505470_6165.JPEG
alexnet,4,820,NaN,bear,keyboard,c05,4660_con_dnn_c05_keyboard_10_n04505470_5021.JPEG
alexnet,4,821,NaN,bear,elephant,c05,4661_con_dnn_c05_elephant_10_n02504458_11693.JPEG
alexnet,4,822,NaN,bear,elephant,c05,4662_con_dnn_c05_elephant_10_n02504458_3634.JPEG
alexnet,4,823,NaN,bird,elephant,c05,4663_con_dnn_c05_elephant_10_n02504013_23032.JPEG
alexnet,4,824,NaN,bear,elephant,c05,4664_con_dnn_c05_elephant_10_n02504458_5482.JPEG
alexnet,4,825,NaN,bear,elephant,c05,4665_con_dnn_c05_elephant_10_n02504458_4482.JPEG
alexnet,4,826,NaN,airplane,elephant,c05,4666_con_dnn_c05_elephant_10_n02504458_2068.JPEG
alexnet,4,827,NaN,airplane,elephant,c05,4667_con_dnn_c05_elephant_10_n02504013_7191.JPEG
alexnet,4,828,NaN,boat,elephant,c05,4668_con_dnn_c05_elephant_10_n02504458_3169.JPEG
alexnet,4,829,NaN,bear,elephant,c05,4669_con_dnn_c05_elephant_10_n02504013_1900.JPEG
alexnet,4,830,NaN,bear,elephant,c05,4670_con_dnn_c05_elephant_10_n02504458_543.JPEG
alexnet,4,831,NaN,boat,bicycle,c05,4671_con_dnn_c05_bicycle_10_n02835271_2624.JPEG
alexnet,4,832,NaN,bird,bicycle,c05,4672_con_dnn_c05_bicycle_10_n02835271_10265.JPEG
alexnet,4,833,NaN,bottle,bicycle,c05,4673_con_dnn_c05_bicycle_10_n03792782_51679.JPEG
alexnet,4,834,NaN,bear,bicycle,c05,4674_con_dnn_c05_bicycle_10_n02835271_11884.JPEG
alexnet,4,835,NaN,bird,bicycle,c05,4675_con_dnn_c05_bicycle_10_n03792782_6614.JPEG
alexnet,4,836,NaN,bear,bicycle,c05,4676_con_dnn_c05_bicycle_10_n03792782_52.JPEG
alexnet,4,837,NaN,bird,bicycle,c05,4677_con_dnn_c05_bicycle_10_n02835271_5886.JPEG
alexnet,4,838,NaN,bird,bicycle,c05,4678_con_dnn_c05_bicycle_10_n02835271_5047.JPEG
alexnet,4,839,NaN,truck,bicycle,c05,4679_con_dnn_c05_bicycle_10_n02835271_7041.JPEG
alexnet,4,840,NaN,bottle,bicycle,c05,4680_con_dnn_c05_bicycle_10_n03792782_5297.JPEG
alexnet,4,841,NaN,bear,airplane,c05,4681_con_dnn_c05_airplane_10_n02690373_4695.JPEG
alexnet,4,842,NaN,boat,airplane,c05,4682_con_dnn_c05_airplane_10_n02690373_9687.JPEG
alexnet,4,843,NaN,airplane,airplane,c05,4683_con_dnn_c05_airplane_10_n02690373_9441.JPEG
alexnet,4,844,NaN,airplane,airplane,c05,4684_con_dnn_c05_airplane_10_n02690373_6468.JPEG
alexnet,4,845,NaN,airplane,airplane,c05,4685_con_dnn_c05_airplane_10_n02690373_6096.JPEG
alexnet,4,846,NaN,bear,airplane,c05,4686_con_dnn_c05_airplane_10_n02690373_980.JPEG
alexnet,4,847,NaN,bear,airplane,c05,4687_con_dnn_c05_airplane_10_n02690373_1837.JPEG
alexnet,4,848,NaN,airplane,airplane,c05,4688_con_dnn_c05_airplane_10_n02690373_306.JPEG
alexnet,4,849,NaN,airplane,airplane,c05,4689_con_dnn_c05_airplane_10_n02690373_9086.JPEG
alexnet,4,850,NaN,airplane,airplane,c05,4690_con_dnn_c05_airplane_10_n02690373_4115.JPEG
alexnet,4,851,NaN,bottle,clock,c05,4691_con_dnn_c05_clock_10_n02708093_601.JPEG
alexnet,4,852,NaN,bear,clock,c05,4692_con_dnn_c05_clock_10_n04548280_11681.JPEG
alexnet,4,853,NaN,bear,clock,c05,4693_con_dnn_c05_clock_10_n02708093_1144.JPEG
alexnet,4,854,NaN,bear,clock,c05,4694_con_dnn_c05_clock_10_n02708093_3666.JPEG
alexnet,4,855,NaN,bear,clock,c05,4695_con_dnn_c05_clock_10_n03196217_3903.JPEG
alexnet,4,856,NaN,bottle,clock,c05,4696_con_dnn_c05_clock_10_n04548280_2291.JPEG
alexnet,4,857,NaN,bottle,clock,c05,4697_con_dnn_c05_clock_10_n03196217_7467.JPEG
alexnet,4,858,NaN,bottle,clock,c05,4698_con_dnn_c05_clock_10_n02708093_2875.JPEG
alexnet,4,859,NaN,bear,clock,c05,4699_con_dnn_c05_clock_10_n03196217_5914.JPEG
alexnet,4,860,NaN,bottle,clock,c05,4700_con_dnn_c05_clock_10_n04548280_20518.JPEG
alexnet,4,861,NaN,oven,oven,c05,4701_con_dnn_c05_oven_10_n04111531_5216.JPEG
alexnet,4,862,NaN,boat,oven,c05,4702_con_dnn_c05_oven_10_n04111531_8309.JPEG
alexnet,4,863,NaN,chair,oven,c05,4703_con_dnn_c05_oven_10_n04111531_8144.JPEG
alexnet,4,864,NaN,bear,oven,c05,4704_con_dnn_c05_oven_10_n04111531_15257.JPEG
alexnet,4,865,NaN,chair,oven,c05,4705_con_dnn_c05_oven_10_n04111531_2447.JPEG
alexnet,4,866,NaN,bottle,oven,c05,4706_con_dnn_c05_oven_10_n04111531_2342.JPEG
alexnet,4,867,NaN,bear,oven,c05,4707_con_dnn_c05_oven_10_n04111531_10339.JPEG
alexnet,4,868,NaN,bottle,oven,c05,4708_con_dnn_c05_oven_10_n04111531_6298.JPEG
alexnet,4,869,NaN,knife,oven,c05,4709_con_dnn_c05_oven_10_n04111531_7667.JPEG
alexnet,4,870,NaN,bear,oven,c05,4710_con_dnn_c05_oven_10_n04111531_19240.JPEG
alexnet,4,871,NaN,chair,chair,c05,4711_con_dnn_c05_chair_10_n03376595_8520.JPEG
alexnet,4,872,NaN,bottle,chair,c05,4712_con_dnn_c05_chair_10_n03376595_11280.JPEG
alexnet,4,873,NaN,boat,chair,c05,4713_con_dnn_c05_chair_10_n04099969_72.JPEG
alexnet,4,874,NaN,bottle,chair,c05,4714_con_dnn_c05_chair_10_n03376595_4033.JPEG
alexnet,4,875,NaN,clock,chair,c05,4715_con_dnn_c05_chair_10_n03376595_2694.JPEG
alexnet,4,876,NaN,bottle,chair,c05,4716_con_dnn_c05_chair_10_n03376595_8909.JPEG
alexnet,4,877,NaN,bottle,chair,c05,4717_con_dnn_c05_chair_10_n04429376_602.JPEG
alexnet,4,878,NaN,bear,chair,c05,4718_con_dnn_c05_chair_10_n02791124_5862.JPEG
alexnet,4,879,NaN,chair,chair,c05,4719_con_dnn_c05_chair_10_n02791124_241.JPEG
alexnet,4,880,NaN,chair,chair,c05,4720_con_dnn_c05_chair_10_n03376595_5266.JPEG
alexnet,4,881,NaN,airplane,bear,c05,4721_con_dnn_c05_bear_10_n02133161_11436.JPEG
alexnet,4,882,NaN,bear,bear,c05,4722_con_dnn_c05_bear_10_n02134084_3103.JPEG
alexnet,4,883,NaN,bear,bear,c05,4723_con_dnn_c05_bear_10_n02134084_23148.JPEG
alexnet,4,884,NaN,bear,bear,c05,4724_con_dnn_c05_bear_10_n02133161_18699.JPEG
alexnet,4,885,NaN,bear,bear,c05,4725_con_dnn_c05_bear_10_n02134084_1654.JPEG
alexnet,4,886,NaN,airplane,bear,c05,4726_con_dnn_c05_bear_10_n02134418_5582.JPEG
alexnet,4,887,NaN,bear,bear,c05,4727_con_dnn_c05_bear_10_n02133161_564.JPEG
alexnet,4,888,NaN,bird,bear,c05,4728_con_dnn_c05_bear_10_n02132136_12845.JPEG
alexnet,4,889,NaN,bear,bear,c05,4729_con_dnn_c05_bear_10_n02132136_1665.JPEG
alexnet,4,890,NaN,bear,bear,c05,4730_con_dnn_c05_bear_10_n02134418_5510.JPEG
alexnet,4,891,NaN,bear,boat,c05,4731_con_dnn_c05_boat_10_n04273569_13414.JPEG
alexnet,4,892,NaN,boat,boat,c05,4732_con_dnn_c05_boat_10_n03344393_4830.JPEG
alexnet,4,893,NaN,airplane,boat,c05,4733_con_dnn_c05_boat_10_n03662601_17647.JPEG
alexnet,4,894,NaN,boat,boat,c05,4734_con_dnn_c05_boat_10_n03344393_8091.JPEG
alexnet,4,895,NaN,airplane,boat,c05,4735_con_dnn_c05_boat_10_n02951358_11401.JPEG
alexnet,4,896,NaN,bear,boat,c05,4736_con_dnn_c05_boat_10_n02951358_12080.JPEG
alexnet,4,897,NaN,boat,boat,c05,4737_con_dnn_c05_boat_10_n02951358_3205.JPEG
alexnet,4,898,NaN,bird,boat,c05,4738_con_dnn_c05_boat_10_n03662601_5376.JPEG
alexnet,4,899,NaN,bear,boat,c05,4739_con_dnn_c05_boat_10_n04612504_1860.JPEG
alexnet,4,900,NaN,airplane,boat,c05,4740_con_dnn_c05_boat_10_n04612504_17854.JPEG
alexnet,4,901,NaN,bear,cat,c05,4741_con_dnn_c05_cat_10_n02123597_12507.JPEG
alexnet,4,902,NaN,bear,cat,c05,4742_con_dnn_c05_cat_10_n02124075_10927.JPEG
alexnet,4,903,NaN,bear,cat,c05,4743_con_dnn_c05_cat_10_n02123394_8695.JPEG
alexnet,4,904,NaN,boat,cat,c05,4744_con_dnn_c05_cat_10_n02124075_1102.JPEG
alexnet,4,905,NaN,bear,cat,c05,4745_con_dnn_c05_cat_10_n02123045_12046.JPEG
alexnet,4,906,NaN,bear,cat,c05,4746_con_dnn_c05_cat_10_n02123159_7949.JPEG
alexnet,4,907,NaN,bear,cat,c05,4747_con_dnn_c05_cat_10_n02123159_84.JPEG
alexnet,4,908,NaN,bird,cat,c05,4748_con_dnn_c05_cat_10_n02124075_10071.JPEG
alexnet,4,909,NaN,bear,cat,c05,4749_con_dnn_c05_cat_10_n02125311_4445.JPEG
alexnet,4,910,NaN,dog,cat,c05,4750_con_dnn_c05_cat_10_n02123394_530.JPEG
alexnet,4,911,NaN,airplane,bottle,c05,4751_con_dnn_c05_bottle_10_n02823428_13618.JPEG
alexnet,4,912,NaN,bottle,bottle,c05,4752_con_dnn_c05_bottle_10_n03937543_4385.JPEG
alexnet,4,913,NaN,bear,bottle,c05,4753_con_dnn_c05_bottle_10_n04579145_1302.JPEG
alexnet,4,914,NaN,bottle,bottle,c05,4754_con_dnn_c05_bottle_10_n04591713_2088.JPEG
alexnet,4,915,NaN,bear,bottle,c05,4755_con_dnn_c05_bottle_10_n04591713_5217.JPEG
alexnet,4,916,NaN,bottle,bottle,c05,4756_con_dnn_c05_bottle_10_n04560804_8550.JPEG
alexnet,4,917,NaN,bear,bottle,c05,4757_con_dnn_c05_bottle_10_n04560804_12736.JPEG
alexnet,4,918,NaN,bottle,bottle,c05,4758_con_dnn_c05_bottle_10_n03983396_1193.JPEG
alexnet,4,919,NaN,bear,bottle,c05,4759_con_dnn_c05_bottle_10_n03937543_2135.JPEG
alexnet,4,920,NaN,bear,bottle,c05,4760_con_dnn_c05_bottle_10_n02823428_903.JPEG
alexnet,4,921,NaN,bear,truck,c05,4761_con_dnn_c05_truck_10_n03796401_21335.JPEG
alexnet,4,922,NaN,bottle,truck,c05,4762_con_dnn_c05_truck_10_n04467665_14656.JPEG
alexnet,4,923,NaN,truck,truck,c05,4763_con_dnn_c05_truck_10_n03417042_7544.JPEG
alexnet,4,924,NaN,boat,truck,c05,4764_con_dnn_c05_truck_10_n03796401_2557.JPEG
alexnet,4,925,NaN,airplane,truck,c05,4765_con_dnn_c05_truck_10_n04467665_6523.JPEG
alexnet,4,926,NaN,airplane,truck,c05,4766_con_dnn_c05_truck_10_n03796401_1023.JPEG
alexnet,4,927,NaN,boat,truck,c05,4767_con_dnn_c05_truck_10_n03796401_664.JPEG
alexnet,4,928,NaN,bear,truck,c05,4768_con_dnn_c05_truck_10_n04467665_7928.JPEG
alexnet,4,929,NaN,truck,truck,c05,4769_con_dnn_c05_truck_10_n04467665_14623.JPEG
alexnet,4,930,NaN,boat,truck,c05,4770_con_dnn_c05_truck_10_n04467665_61362.JPEG
alexnet,4,931,NaN,bear,car,c05,4771_con_dnn_c05_car_10_n03100240_6844.JPEG
alexnet,4,932,NaN,bear,car,c05,4772_con_dnn_c05_car_10_n04285008_7811.JPEG
alexnet,4,933,NaN,bear,car,c05,4773_con_dnn_c05_car_10_n04285008_9488.JPEG
alexnet,4,934,NaN,bear,car,c05,4774_con_dnn_c05_car_10_n03100240_4519.JPEG
alexnet,4,935,NaN,bottle,car,c05,4775_con_dnn_c05_car_10_n03100240_3522.JPEG
alexnet,4,936,NaN,boat,car,c05,4776_con_dnn_c05_car_10_n02814533_75767.JPEG
alexnet,4,937,NaN,bear,car,c05,4777_con_dnn_c05_car_10_n04285008_3204.JPEG
alexnet,4,938,NaN,bear,car,c05,4778_con_dnn_c05_car_10_n02814533_14554.JPEG
alexnet,4,939,NaN,bottle,car,c05,4779_con_dnn_c05_car_10_n03100240_8232.JPEG
alexnet,4,940,NaN,bird,car,c05,4780_con_dnn_c05_car_10_n02814533_49630.JPEG
alexnet,4,941,NaN,bear,bird,c05,4781_con_dnn_c05_bird_10_n02009229_5573.JPEG
alexnet,4,942,NaN,airplane,bird,c05,4782_con_dnn_c05_bird_10_n02002724_7628.JPEG
alexnet,4,943,NaN,bird,bird,c05,4783_con_dnn_c05_bird_10_n02006656_8666.JPEG
alexnet,4,944,NaN,bear,bird,c05,4784_con_dnn_c05_bird_10_n02018795_4828.JPEG
alexnet,4,945,NaN,bird,bird,c05,4785_con_dnn_c05_bird_10_n02028035_18086.JPEG
alexnet,4,946,NaN,bear,bird,c05,4786_con_dnn_c05_bird_10_n01796340_2783.JPEG
alexnet,4,947,NaN,bird,bird,c05,4787_con_dnn_c05_bird_10_n02056570_4306.JPEG
alexnet,4,948,NaN,bear,bird,c05,4788_con_dnn_c05_bird_10_n01795545_5709.JPEG
alexnet,4,949,NaN,bear,bird,c05,4789_con_dnn_c05_bird_10_n01592084_6387.JPEG
alexnet,4,950,NaN,bear,bird,c05,4790_con_dnn_c05_bird_10_n01534433_349.JPEG
alexnet,4,951,NaN,bear,dog,c05,4791_con_dnn_c05_dog_10_n02109525_8471.JPEG
alexnet,4,952,NaN,bear,dog,c05,4792_con_dnn_c05_dog_10_n02106382_12770.JPEG
alexnet,4,953,NaN,bear,dog,c05,4793_con_dnn_c05_dog_10_n02113023_5006.JPEG
alexnet,4,954,NaN,bear,dog,c05,4794_con_dnn_c05_dog_10_n02110185_1752.JPEG
alexnet,4,955,NaN,bear,dog,c05,4795_con_dnn_c05_dog_10_n02105162_7041.JPEG
alexnet,4,956,NaN,bear,dog,c05,4796_con_dnn_c05_dog_10_n02109525_72901.JPEG
alexnet,4,957,NaN,bear,dog,c05,4797_con_dnn_c05_dog_10_n02108915_1977.JPEG
alexnet,4,958,NaN,bear,dog,c05,4798_con_dnn_c05_dog_10_n02107312_4906.JPEG
alexnet,4,959,NaN,bear,dog,c05,4799_con_dnn_c05_dog_10_n02086646_1028.JPEG
alexnet,4,960,NaN,bear,dog,c05,4800_con_dnn_c05_dog_10_n02093859_5423.JPEG
alexnet,4,961,NaN,bear,knife,c03,4801_con_dnn_c03_knife_10_n03041632_2338.JPEG
alexnet,4,962,NaN,bird,knife,c03,4802_con_dnn_c03_knife_10_n03041632_16020.JPEG
alexnet,4,963,NaN,bear,knife,c03,4803_con_dnn_c03_knife_10_n03041632_36247.JPEG
alexnet,4,964,NaN,airplane,knife,c03,4804_con_dnn_c03_knife_10_n03041632_52702.JPEG
alexnet,4,965,NaN,bear,knife,c03,4805_con_dnn_c03_knife_10_n03041632_94995.JPEG
alexnet,4,966,NaN,bear,knife,c03,4806_con_dnn_c03_knife_10_n03041632_62810.JPEG
alexnet,4,967,NaN,bear,knife,c03,4807_con_dnn_c03_knife_10_n03041632_48675.JPEG
alexnet,4,968,NaN,airplane,knife,c03,4808_con_dnn_c03_knife_10_n03041632_13225.JPEG
alexnet,4,969,NaN,bear,knife,c03,4809_con_dnn_c03_knife_10_n03041632_42841.JPEG
alexnet,4,970,NaN,bear,knife,c03,4810_con_dnn_c03_knife_10_n03041632_23087.JPEG
alexnet,4,971,NaN,bird,keyboard,c03,4811_con_dnn_c03_keyboard_10_n03085013_24294.JPEG
alexnet,4,972,NaN,bear,keyboard,c03,4812_con_dnn_c03_keyboard_10_n03085013_17452.JPEG
alexnet,4,973,NaN,dog,keyboard,c03,4813_con_dnn_c03_keyboard_10_n04505470_2816.JPEG
alexnet,4,974,NaN,bear,keyboard,c03,4814_con_dnn_c03_keyboard_10_n03085013_21932.JPEG
alexnet,4,975,NaN,bear,keyboard,c03,4815_con_dnn_c03_keyboard_10_n04505470_4803.JPEG
alexnet,4,976,NaN,clock,keyboard,c03,4816_con_dnn_c03_keyboard_10_n03085013_21115.JPEG
alexnet,4,977,NaN,airplane,keyboard,c03,4817_con_dnn_c03_keyboard_10_n04505470_10023.JPEG
alexnet,4,978,NaN,airplane,keyboard,c03,4818_con_dnn_c03_keyboard_10_n03085013_14893.JPEG
alexnet,4,979,NaN,boat,keyboard,c03,4819_con_dnn_c03_keyboard_10_n04505470_4547.JPEG
alexnet,4,980,NaN,bear,keyboard,c03,4820_con_dnn_c03_keyboard_10_n03085013_20267.JPEG
alexnet,4,981,NaN,bear,elephant,c03,4821_con_dnn_c03_elephant_10_n02504013_5424.JPEG
alexnet,4,982,NaN,airplane,elephant,c03,4822_con_dnn_c03_elephant_10_n02504458_488.JPEG
alexnet,4,983,NaN,airplane,elephant,c03,4823_con_dnn_c03_elephant_10_n02504458_10554.JPEG
alexnet,4,984,NaN,bear,elephant,c03,4824_con_dnn_c03_elephant_10_n02504458_1837.JPEG
alexnet,4,985,NaN,bear,elephant,c03,4825_con_dnn_c03_elephant_10_n02504013_7821.JPEG
alexnet,4,986,NaN,bear,elephant,c03,4826_con_dnn_c03_elephant_10_n02504458_11186.JPEG
alexnet,4,987,NaN,bear,elephant,c03,4827_con_dnn_c03_elephant_10_n02504458_10326.JPEG
alexnet,4,988,NaN,bird,elephant,c03,4828_con_dnn_c03_elephant_10_n02504458_7259.JPEG
alexnet,4,989,NaN,bear,elephant,c03,4829_con_dnn_c03_elephant_10_n02504458_1893.JPEG
alexnet,4,990,NaN,airplane,elephant,c03,4830_con_dnn_c03_elephant_10_n02504013_26229.JPEG
alexnet,4,991,NaN,bear,bicycle,c03,4831_con_dnn_c03_bicycle_10_n02835271_2904.JPEG
alexnet,4,992,NaN,airplane,bicycle,c03,4832_con_dnn_c03_bicycle_10_n02835271_8190.JPEG
alexnet,4,993,NaN,airplane,bicycle,c03,4833_con_dnn_c03_bicycle_10_n03792782_1983.JPEG
alexnet,4,994,NaN,bear,bicycle,c03,4834_con_dnn_c03_bicycle_10_n02835271_7969.JPEG
alexnet,4,995,NaN,bear,bicycle,c03,4835_con_dnn_c03_bicycle_10_n03792782_34689.JPEG
alexnet,4,996,NaN,bear,bicycle,c03,4836_con_dnn_c03_bicycle_10_n03792782_19933.JPEG
alexnet,4,997,NaN,bird,bicycle,c03,4837_con_dnn_c03_bicycle_10_n02835271_4726.JPEG
alexnet,4,998,NaN,bear,bicycle,c03,4838_con_dnn_c03_bicycle_10_n03792782_8224.JPEG
alexnet,4,999,NaN,boat,bicycle,c03,4839_con_dnn_c03_bicycle_10_n03792782_5578.JPEG
alexnet,4,1000,NaN,bear,bicycle,c03,4840_con_dnn_c03_bicycle_10_n02835271_21573.JPEG
alexnet,4,1001,NaN,airplane,airplane,c03,4841_con_dnn_c03_airplane_10_n02690373_8650.JPEG
alexnet,4,1002,NaN,airplane,airplane,c03,4842_con_dnn_c03_airplane_10_n02690373_10518.JPEG
alexnet,4,1003,NaN,airplane,airplane,c03,4843_con_dnn_c03_airplane_10_n02690373_6891.JPEG
alexnet,4,1004,NaN,airplane,airplane,c03,4844_con_dnn_c03_airplane_10_n02690373_5382.JPEG
alexnet,4,1005,NaN,airplane,airplane,c03,4845_con_dnn_c03_airplane_10_n02690373_10131.JPEG
alexnet,4,1006,NaN,airplane,airplane,c03,4846_con_dnn_c03_airplane_10_n02690373_19286.JPEG
alexnet,4,1007,NaN,bear,airplane,c03,4847_con_dnn_c03_airplane_10_n02690373_6665.JPEG
alexnet,4,1008,NaN,airplane,airplane,c03,4848_con_dnn_c03_airplane_10_n02690373_9829.JPEG
alexnet,4,1009,NaN,airplane,airplane,c03,4849_con_dnn_c03_airplane_10_n02690373_3726.JPEG
alexnet,4,1010,NaN,airplane,airplane,c03,4850_con_dnn_c03_airplane_10_n02690373_7118.JPEG
alexnet,4,1011,NaN,airplane,clock,c03,4851_con_dnn_c03_clock_10_n04548280_3049.JPEG
alexnet,4,1012,NaN,bear,clock,c03,4852_con_dnn_c03_clock_10_n02708093_1276.JPEG
alexnet,4,1013,NaN,bear,clock,c03,4853_con_dnn_c03_clock_10_n02708093_3609.JPEG
alexnet,4,1014,NaN,airplane,clock,c03,4854_con_dnn_c03_clock_10_n04548280_5407.JPEG
alexnet,4,1015,NaN,airplane,clock,c03,4855_con_dnn_c03_clock_10_n03196217_1364.JPEG
alexnet,4,1016,NaN,bear,clock,c03,4856_con_dnn_c03_clock_10_n03196217_3868.JPEG
alexnet,4,1017,NaN,bear,clock,c03,4857_con_dnn_c03_clock_10_n03196217_3951.JPEG
alexnet,4,1018,NaN,bear,clock,c03,4858_con_dnn_c03_clock_10_n04548280_23690.JPEG
alexnet,4,1019,NaN,bear,clock,c03,4859_con_dnn_c03_clock_10_n03196217_2805.JPEG
alexnet,4,1020,NaN,clock,clock,c03,4860_con_dnn_c03_clock_10_n02708093_3790.JPEG
alexnet,4,1021,NaN,bird,oven,c03,4861_con_dnn_c03_oven_10_n04111531_13560.JPEG
alexnet,4,1022,NaN,airplane,oven,c03,4862_con_dnn_c03_oven_10_n04111531_14095.JPEG
alexnet,4,1023,NaN,airplane,oven,c03,4863_con_dnn_c03_oven_10_n04111531_22386.JPEG
alexnet,4,1024,NaN,airplane,oven,c03,4864_con_dnn_c03_oven_10_n04111531_7449.JPEG
alexnet,4,1025,NaN,bear,oven,c03,4865_con_dnn_c03_oven_10_n04111531_4984.JPEG
alexnet,4,1026,NaN,bear,oven,c03,4866_con_dnn_c03_oven_10_n04111531_13172.JPEG
alexnet,4,1027,NaN,bear,oven,c03,4867_con_dnn_c03_oven_10_n04111531_4012.JPEG
alexnet,4,1028,NaN,airplane,oven,c03,4868_con_dnn_c03_oven_10_n04111531_10375.JPEG
alexnet,4,1029,NaN,clock,oven,c03,4869_con_dnn_c03_oven_10_n04111531_3477.JPEG
alexnet,4,1030,NaN,airplane,oven,c03,4870_con_dnn_c03_oven_10_n04111531_4817.JPEG
alexnet,4,1031,NaN,airplane,chair,c03,4871_con_dnn_c03_chair_10_n04429376_6911.JPEG
alexnet,4,1032,NaN,bear,chair,c03,4872_con_dnn_c03_chair_10_n03376595_1051.JPEG
alexnet,4,1033,NaN,bear,chair,c03,4873_con_dnn_c03_chair_10_n04099969_16556.JPEG
alexnet,4,1034,NaN,airplane,chair,c03,4874_con_dnn_c03_chair_10_n04429376_19101.JPEG
alexnet,4,1035,NaN,bear,chair,c03,4875_con_dnn_c03_chair_10_n02791124_3923.JPEG
alexnet,4,1036,NaN,bear,chair,c03,4876_con_dnn_c03_chair_10_n04429376_31206.JPEG
alexnet,4,1037,NaN,airplane,chair,c03,4877_con_dnn_c03_chair_10_n03376595_1615.JPEG
alexnet,4,1038,NaN,airplane,chair,c03,4878_con_dnn_c03_chair_10_n02791124_4174.JPEG
alexnet,4,1039,NaN,bear,chair,c03,4879_con_dnn_c03_chair_10_n04429376_27688.JPEG
alexnet,4,1040,NaN,airplane,chair,c03,4880_con_dnn_c03_chair_10_n02791124_381.JPEG
alexnet,4,1041,NaN,airplane,bear,c03,4881_con_dnn_c03_bear_10_n02134084_4431.JPEG
alexnet,4,1042,NaN,bear,bear,c03,4882_con_dnn_c03_bear_10_n02134418_4073.JPEG
alexnet,4,1043,NaN,bear,bear,c03,4883_con_dnn_c03_bear_10_n02134418_1487.JPEG
alexnet,4,1044,NaN,bear,bear,c03,4884_con_dnn_c03_bear_10_n02134418_186.JPEG
alexnet,4,1045,NaN,bear,bear,c03,4885_con_dnn_c03_bear_10_n02133161_1301.JPEG
alexnet,4,1046,NaN,airplane,bear,c03,4886_con_dnn_c03_bear_10_n02134084_11672.JPEG
alexnet,4,1047,NaN,bear,bear,c03,4887_con_dnn_c03_bear_10_n02134084_14505.JPEG
alexnet,4,1048,NaN,bear,bear,c03,4888_con_dnn_c03_bear_10_n02134084_8015.JPEG
alexnet,4,1049,NaN,bear,bear,c03,4889_con_dnn_c03_bear_10_n02132136_7185.JPEG
alexnet,4,1050,NaN,bear,bear,c03,4890_con_dnn_c03_bear_10_n02134084_2364.JPEG
alexnet,4,1051,NaN,bear,boat,c03,4891_con_dnn_c03_boat_10_n02951358_34783.JPEG
alexnet,4,1052,NaN,airplane,boat,c03,4892_con_dnn_c03_boat_10_n03344393_3453.JPEG
alexnet,4,1053,NaN,airplane,boat,c03,4893_con_dnn_c03_boat_10_n02951358_9622.JPEG
alexnet,4,1054,NaN,bear,boat,c03,4894_con_dnn_c03_boat_10_n03344393_146.JPEG
alexnet,4,1055,NaN,bear,boat,c03,4895_con_dnn_c03_boat_10_n02951358_8915.JPEG
alexnet,4,1056,NaN,airplane,boat,c03,4896_con_dnn_c03_boat_10_n04273569_2253.JPEG
alexnet,4,1057,NaN,bear,boat,c03,4897_con_dnn_c03_boat_10_n04273569_2389.JPEG
alexnet,4,1058,NaN,airplane,boat,c03,4898_con_dnn_c03_boat_10_n03662601_9874.JPEG
alexnet,4,1059,NaN,airplane,boat,c03,4899_con_dnn_c03_boat_10_n02951358_31441.JPEG
alexnet,4,1060,NaN,bear,boat,c03,4900_con_dnn_c03_boat_10_n03344393_3520.JPEG
alexnet,4,1061,NaN,bear,cat,c03,4901_con_dnn_c03_cat_10_n02123394_6711.JPEG
alexnet,4,1062,NaN,bird,cat,c03,4902_con_dnn_c03_cat_10_n02123597_14267.JPEG
alexnet,4,1063,NaN,airplane,cat,c03,4903_con_dnn_c03_cat_10_n02125311_55237.JPEG
alexnet,4,1064,NaN,airplane,cat,c03,4904_con_dnn_c03_cat_10_n02125311_39916.JPEG
alexnet,4,1065,NaN,bear,cat,c03,4905_con_dnn_c03_cat_10_n02123045_20518.JPEG
alexnet,4,1066,NaN,airplane,cat,c03,4906_con_dnn_c03_cat_10_n02123597_6641.JPEG
alexnet,4,1067,NaN,bear,cat,c03,4907_con_dnn_c03_cat_10_n02125311_16175.JPEG
alexnet,4,1068,NaN,bear,cat,c03,4908_con_dnn_c03_cat_10_n02123394_8173.JPEG
alexnet,4,1069,NaN,airplane,cat,c03,4909_con_dnn_c03_cat_10_n02125311_1247.JPEG
alexnet,4,1070,NaN,bear,cat,c03,4910_con_dnn_c03_cat_10_n02123159_6716.JPEG
alexnet,4,1071,NaN,bear,bottle,c03,4911_con_dnn_c03_bottle_10_n04579145_2949.JPEG
alexnet,4,1072,NaN,bird,bottle,c03,4912_con_dnn_c03_bottle_10_n04557648_9324.JPEG
alexnet,4,1073,NaN,airplane,bottle,c03,4913_con_dnn_c03_bottle_10_n04557648_10381.JPEG
alexnet,4,1074,NaN,airplane,bottle,c03,4914_con_dnn_c03_bottle_10_n03937543_6644.JPEG
alexnet,4,1075,NaN,bear,bottle,c03,4915_con_dnn_c03_bottle_10_n04560804_19508.JPEG
alexnet,4,1076,NaN,bear,bottle,c03,4916_con_dnn_c03_bottle_10_n03983396_16348.JPEG
alexnet,4,1077,NaN,bear,bottle,c03,4917_con_dnn_c03_bottle_10_n04579145_268.JPEG
alexnet,4,1078,NaN,bottle,bottle,c03,4918_con_dnn_c03_bottle_10_n04591713_6941.JPEG
alexnet,4,1079,NaN,airplane,bottle,c03,4919_con_dnn_c03_bottle_10_n02823428_5530.JPEG
alexnet,4,1080,NaN,bear,bottle,c03,4920_con_dnn_c03_bottle_10_n04557648_4944.JPEG
alexnet,4,1081,NaN,bear,truck,c03,4921_con_dnn_c03_truck_10_n03796401_8293.JPEG
alexnet,4,1082,NaN,bear,truck,c03,4922_con_dnn_c03_truck_10_n04467665_5266.JPEG
alexnet,4,1083,NaN,bear,truck,c03,4923_con_dnn_c03_truck_10_n03417042_1875.JPEG
alexnet,4,1084,NaN,bear,truck,c03,4924_con_dnn_c03_truck_10_n03417042_14690.JPEG
alexnet,4,1085,NaN,bear,truck,c03,4925_con_dnn_c03_truck_10_n04467665_57786.JPEG
alexnet,4,1086,NaN,airplane,truck,c03,4926_con_dnn_c03_truck_10_n03417042_14459.JPEG
alexnet,4,1087,NaN,bear,truck,c03,4927_con_dnn_c03_truck_10_n04467665_16914.JPEG
alexnet,4,1088,NaN,bear,truck,c03,4928_con_dnn_c03_truck_10_n03417042_8707.JPEG
alexnet,4,1089,NaN,bear,truck,c03,4929_con_dnn_c03_truck_10_n04467665_1888.JPEG
alexnet,4,1090,NaN,bear,truck,c03,4930_con_dnn_c03_truck_10_n03417042_14645.JPEG
alexnet,4,1091,NaN,airplane,car,c03,4931_con_dnn_c03_car_10_n03100240_7788.JPEG
alexnet,4,1092,NaN,bear,car,c03,4932_con_dnn_c03_car_10_n03100240_6836.JPEG
alexnet,4,1093,NaN,bear,car,c03,4933_con_dnn_c03_car_10_n02814533_33205.JPEG
alexnet,4,1094,NaN,bear,car,c03,4934_con_dnn_c03_car_10_n04285008_3280.JPEG
alexnet,4,1095,NaN,bear,car,c03,4935_con_dnn_c03_car_10_n03100240_9099.JPEG
alexnet,4,1096,NaN,bear,car,c03,4936_con_dnn_c03_car_10_n04285008_5897.JPEG
alexnet,4,1097,NaN,bear,car,c03,4937_con_dnn_c03_car_10_n04285008_5005.JPEG
alexnet,4,1098,NaN,bear,car,c03,4938_con_dnn_c03_car_10_n03100240_15672.JPEG
alexnet,4,1099,NaN,boat,car,c03,4939_con_dnn_c03_car_10_n02814533_76543.JPEG
alexnet,4,1100,NaN,bear,car,c03,4940_con_dnn_c03_car_10_n04285008_11965.JPEG
alexnet,4,1101,NaN,airplane,bird,c03,4941_con_dnn_c03_bird_10_n02051845_164.JPEG
alexnet,4,1102,NaN,airplane,bird,c03,4942_con_dnn_c03_bird_10_n01537544_1842.JPEG
alexnet,4,1103,NaN,airplane,bird,c03,4943_con_dnn_c03_bird_10_n02033041_1602.JPEG
alexnet,4,1104,NaN,airplane,bird,c03,4944_con_dnn_c03_bird_10_n02018207_5208.JPEG
alexnet,4,1105,NaN,airplane,bird,c03,4945_con_dnn_c03_bird_10_n02002724_1388.JPEG
alexnet,4,1106,NaN,bear,bird,c03,4946_con_dnn_c03_bird_10_n01560419_6090.JPEG
alexnet,4,1107,NaN,airplane,bird,c03,4947_con_dnn_c03_bird_10_n02028035_5667.JPEG
alexnet,4,1108,NaN,bear,bird,c03,4948_con_dnn_c03_bird_10_n02013706_5450.JPEG
alexnet,4,1109,NaN,airplane,bird,c03,4949_con_dnn_c03_bird_10_n01534433_13875.JPEG
alexnet,4,1110,NaN,bird,bird,c03,4950_con_dnn_c03_bird_10_n01843383_6139.JPEG
alexnet,4,1111,NaN,bird,dog,c03,4951_con_dnn_c03_dog_10_n02088238_3136.JPEG
alexnet,4,1112,NaN,bear,dog,c03,4952_con_dnn_c03_dog_10_n02097047_1542.JPEG
alexnet,4,1113,NaN,bear,dog,c03,4953_con_dnn_c03_dog_10_n02093647_6162.JPEG
alexnet,4,1114,NaN,airplane,dog,c03,4954_con_dnn_c03_dog_10_n02107574_44.JPEG
alexnet,4,1115,NaN,airplane,dog,c03,4955_con_dnn_c03_dog_10_n02085936_22399.JPEG
alexnet,4,1116,NaN,bear,dog,c03,4956_con_dnn_c03_dog_10_n02113978_6722.JPEG
alexnet,4,1117,NaN,airplane,dog,c03,4957_con_dnn_c03_dog_10_n02112350_5773.JPEG
alexnet,4,1118,NaN,bear,dog,c03,4958_con_dnn_c03_dog_10_n02112018_5742.JPEG
alexnet,4,1119,NaN,bear,dog,c03,4959_con_dnn_c03_dog_10_n02105251_3557.JPEG
alexnet,4,1120,NaN,bear,dog,c03,4960_con_dnn_c03_dog_10_n02105641_12364.JPEG
alexnet,4,1121,NaN,airplane,knife,c01,4961_con_dnn_c01_knife_10_n03041632_17091.JPEG
alexnet,4,1122,NaN,airplane,knife,c01,4962_con_dnn_c01_knife_10_n03041632_50996.JPEG
alexnet,4,1123,NaN,airplane,knife,c01,4963_con_dnn_c01_knife_10_n03041632_5727.JPEG
alexnet,4,1124,NaN,airplane,knife,c01,4964_con_dnn_c01_knife_10_n03041632_36814.JPEG
alexnet,4,1125,NaN,airplane,knife,c01,4965_con_dnn_c01_knife_10_n03041632_29862.JPEG
alexnet,4,1126,NaN,airplane,knife,c01,4966_con_dnn_c01_knife_10_n03041632_48062.JPEG
alexnet,4,1127,NaN,airplane,knife,c01,4967_con_dnn_c01_knife_10_n03041632_33075.JPEG
alexnet,4,1128,NaN,airplane,knife,c01,4968_con_dnn_c01_knife_10_n03041632_22570.JPEG
alexnet,4,1129,NaN,airplane,knife,c01,4969_con_dnn_c01_knife_10_n03041632_102887.JPEG
alexnet,4,1130,NaN,airplane,knife,c01,4970_con_dnn_c01_knife_10_n03041632_84012.JPEG
alexnet,4,1131,NaN,airplane,keyboard,c01,4971_con_dnn_c01_keyboard_10_n04505470_1393.JPEG
alexnet,4,1132,NaN,airplane,keyboard,c01,4972_con_dnn_c01_keyboard_10_n04505470_9570.JPEG
alexnet,4,1133,NaN,airplane,keyboard,c01,4973_con_dnn_c01_keyboard_10_n04505470_4682.JPEG
alexnet,4,1134,NaN,airplane,keyboard,c01,4974_con_dnn_c01_keyboard_10_n03085013_23769.JPEG
alexnet,4,1135,NaN,airplane,keyboard,c01,4975_con_dnn_c01_keyboard_10_n04505470_10697.JPEG
alexnet,4,1136,NaN,airplane,keyboard,c01,4976_con_dnn_c01_keyboard_10_n03085013_13005.JPEG
alexnet,4,1137,NaN,airplane,keyboard,c01,4977_con_dnn_c01_keyboard_10_n04505470_1229.JPEG
alexnet,4,1138,NaN,airplane,keyboard,c01,4978_con_dnn_c01_keyboard_10_n03085013_23086.JPEG
alexnet,4,1139,NaN,airplane,keyboard,c01,4979_con_dnn_c01_keyboard_10_n04505470_945.JPEG
alexnet,4,1140,NaN,airplane,keyboard,c01,4980_con_dnn_c01_keyboard_10_n04505470_4892.JPEG
alexnet,4,1141,NaN,airplane,elephant,c01,4981_con_dnn_c01_elephant_10_n02504013_1519.JPEG
alexnet,4,1142,NaN,airplane,elephant,c01,4982_con_dnn_c01_elephant_10_n02504458_1661.JPEG
alexnet,4,1143,NaN,airplane,elephant,c01,4983_con_dnn_c01_elephant_10_n02504458_7477.JPEG
alexnet,4,1144,NaN,airplane,elephant,c01,4984_con_dnn_c01_elephant_10_n02504013_632.JPEG
alexnet,4,1145,NaN,airplane,elephant,c01,4985_con_dnn_c01_elephant_10_n02504013_3086.JPEG
alexnet,4,1146,NaN,airplane,elephant,c01,4986_con_dnn_c01_elephant_10_n02504458_5600.JPEG
alexnet,4,1147,NaN,airplane,elephant,c01,4987_con_dnn_c01_elephant_10_n02504013_6081.JPEG
alexnet,4,1148,NaN,airplane,elephant,c01,4988_con_dnn_c01_elephant_10_n02504013_4519.JPEG
alexnet,4,1149,NaN,airplane,elephant,c01,4989_con_dnn_c01_elephant_10_n02504458_2719.JPEG
alexnet,4,1150,NaN,airplane,elephant,c01,4990_con_dnn_c01_elephant_10_n02504458_5641.JPEG
alexnet,4,1151,NaN,airplane,bicycle,c01,4991_con_dnn_c01_bicycle_10_n03792782_11936.JPEG
alexnet,4,1152,NaN,airplane,bicycle,c01,4992_con_dnn_c01_bicycle_10_n02835271_8327.JPEG
alexnet,4,1153,NaN,airplane,bicycle,c01,4993_con_dnn_c01_bicycle_10_n03792782_42626.JPEG
alexnet,4,1154,NaN,bird,bicycle,c01,4994_con_dnn_c01_bicycle_10_n03792782_12442.JPEG
alexnet,4,1155,NaN,airplane,bicycle,c01,4995_con_dnn_c01_bicycle_10_n03792782_11481.JPEG
alexnet,4,1156,NaN,airplane,bicycle,c01,4996_con_dnn_c01_bicycle_10_n03792782_10248.JPEG
alexnet,4,1157,NaN,airplane,bicycle,c01,4997_con_dnn_c01_bicycle_10_n03792782_72443.JPEG
alexnet,4,1158,NaN,airplane,bicycle,c01,4998_con_dnn_c01_bicycle_10_n03792782_59.JPEG
alexnet,4,1159,NaN,airplane,bicycle,c01,4999_con_dnn_c01_bicycle_10_n02835271_9067.JPEG
alexnet,4,1160,NaN,airplane,bicycle,c01,5000_con_dnn_c01_bicycle_10_n03792782_374.JPEG
alexnet,4,1161,NaN,airplane,airplane,c01,5001_con_dnn_c01_airplane_10_n02690373_7300.JPEG
alexnet,4,1162,NaN,airplane,airplane,c01,5002_con_dnn_c01_airplane_10_n02690373_10311.JPEG
alexnet,4,1163,NaN,airplane,airplane,c01,5003_con_dnn_c01_airplane_10_n02690373_4306.JPEG
alexnet,4,1164,NaN,airplane,airplane,c01,5004_con_dnn_c01_airplane_10_n02690373_1213.JPEG
alexnet,4,1165,NaN,airplane,airplane,c01,5005_con_dnn_c01_airplane_10_n02690373_10382.JPEG
alexnet,4,1166,NaN,airplane,airplane,c01,5006_con_dnn_c01_airplane_10_n02690373_8666.JPEG
alexnet,4,1167,NaN,airplane,airplane,c01,5007_con_dnn_c01_airplane_10_n02690373_5016.JPEG
alexnet,4,1168,NaN,airplane,airplane,c01,5008_con_dnn_c01_airplane_10_n02690373_3511.JPEG
alexnet,4,1169,NaN,airplane,airplane,c01,5009_con_dnn_c01_airplane_10_n02690373_8746.JPEG
alexnet,4,1170,NaN,airplane,airplane,c01,5010_con_dnn_c01_airplane_10_n02690373_12505.JPEG
alexnet,4,1171,NaN,airplane,clock,c01,5011_con_dnn_c01_clock_10_n04548280_21343.JPEG
alexnet,4,1172,NaN,airplane,clock,c01,5012_con_dnn_c01_clock_10_n04548280_5137.JPEG
alexnet,4,1173,NaN,airplane,clock,c01,5013_con_dnn_c01_clock_10_n04548280_354.JPEG
alexnet,4,1174,NaN,airplane,clock,c01,5014_con_dnn_c01_clock_10_n02708093_563.JPEG
alexnet,4,1175,NaN,airplane,clock,c01,5015_con_dnn_c01_clock_10_n02708093_459.JPEG
alexnet,4,1176,NaN,airplane,clock,c01,5016_con_dnn_c01_clock_10_n04548280_702.JPEG
alexnet,4,1177,NaN,airplane,clock,c01,5017_con_dnn_c01_clock_10_n02708093_3453.JPEG
alexnet,4,1178,NaN,bear,clock,c01,5018_con_dnn_c01_clock_10_n04548280_5382.JPEG
alexnet,4,1179,NaN,airplane,clock,c01,5019_con_dnn_c01_clock_10_n02708093_4138.JPEG
alexnet,4,1180,NaN,airplane,clock,c01,5020_con_dnn_c01_clock_10_n03196217_8329.JPEG
alexnet,4,1181,NaN,airplane,oven,c01,5021_con_dnn_c01_oven_10_n04111531_4227.JPEG
alexnet,4,1182,NaN,airplane,oven,c01,5022_con_dnn_c01_oven_10_n04111531_22413.JPEG
alexnet,4,1183,NaN,airplane,oven,c01,5023_con_dnn_c01_oven_10_n04111531_4750.JPEG
alexnet,4,1184,NaN,airplane,oven,c01,5024_con_dnn_c01_oven_10_n04111531_20823.JPEG
alexnet,4,1185,NaN,airplane,oven,c01,5025_con_dnn_c01_oven_10_n04111531_9844.JPEG
alexnet,4,1186,NaN,airplane,oven,c01,5026_con_dnn_c01_oven_10_n04111531_12080.JPEG
alexnet,4,1187,NaN,airplane,oven,c01,5027_con_dnn_c01_oven_10_n04111531_16007.JPEG
alexnet,4,1188,NaN,airplane,oven,c01,5028_con_dnn_c01_oven_10_n04111531_21918.JPEG
alexnet,4,1189,NaN,airplane,oven,c01,5029_con_dnn_c01_oven_10_n04111531_8193.JPEG
alexnet,4,1190,NaN,airplane,oven,c01,5030_con_dnn_c01_oven_10_n04111531_8398.JPEG
alexnet,4,1191,NaN,airplane,chair,c01,5031_con_dnn_c01_chair_10_n02791124_2275.JPEG
alexnet,4,1192,NaN,airplane,chair,c01,5032_con_dnn_c01_chair_10_n04429376_20896.JPEG
alexnet,4,1193,NaN,airplane,chair,c01,5033_con_dnn_c01_chair_10_n04099969_6435.JPEG
alexnet,4,1194,NaN,airplane,chair,c01,5034_con_dnn_c01_chair_10_n04099969_4466.JPEG
alexnet,4,1195,NaN,airplane,chair,c01,5035_con_dnn_c01_chair_10_n04429376_20935.JPEG
alexnet,4,1196,NaN,airplane,chair,c01,5036_con_dnn_c01_chair_10_n03376595_6652.JPEG
alexnet,4,1197,NaN,airplane,chair,c01,5037_con_dnn_c01_chair_10_n03376595_425.JPEG
alexnet,4,1198,NaN,airplane,chair,c01,5038_con_dnn_c01_chair_10_n04429376_47670.JPEG
alexnet,4,1199,NaN,airplane,chair,c01,5039_con_dnn_c01_chair_10_n03376595_3062.JPEG
alexnet,4,1200,NaN,airplane,chair,c01,5040_con_dnn_c01_chair_10_n04429376_21846.JPEG
alexnet,4,1201,NaN,bird,bear,c01,5041_con_dnn_c01_bear_10_n02132136_24142.JPEG
alexnet,4,1202,NaN,airplane,bear,c01,5042_con_dnn_c01_bear_10_n02134084_1730.JPEG
alexnet,4,1203,NaN,airplane,bear,c01,5043_con_dnn_c01_bear_10_n02132136_2852.JPEG
alexnet,4,1204,NaN,airplane,bear,c01,5044_con_dnn_c01_bear_10_n02134084_16520.JPEG
alexnet,4,1205,NaN,airplane,bear,c01,5045_con_dnn_c01_bear_10_n02134084_22511.JPEG
alexnet,4,1206,NaN,airplane,bear,c01,5046_con_dnn_c01_bear_10_n02132136_26027.JPEG
alexnet,4,1207,NaN,airplane,bear,c01,5047_con_dnn_c01_bear_10_n02134418_1028.JPEG
alexnet,4,1208,NaN,airplane,bear,c01,5048_con_dnn_c01_bear_10_n02132136_494.JPEG
alexnet,4,1209,NaN,airplane,bear,c01,5049_con_dnn_c01_bear_10_n02132136_1186.JPEG
alexnet,4,1210,NaN,airplane,bear,c01,5050_con_dnn_c01_bear_10_n02133161_461.JPEG
alexnet,4,1211,NaN,airplane,boat,c01,5051_con_dnn_c01_boat_10_n02951358_6933.JPEG
alexnet,4,1212,NaN,airplane,boat,c01,5052_con_dnn_c01_boat_10_n04612504_7851.JPEG
alexnet,4,1213,NaN,airplane,boat,c01,5053_con_dnn_c01_boat_10_n04612504_10297.JPEG
alexnet,4,1214,NaN,airplane,boat,c01,5054_con_dnn_c01_boat_10_n02951358_15422.JPEG
