subj,session,trial,rt,object_response,category,condition,imagename
alexnet,6,1,NaN,knife,knife,c100,6401_con_dnn_c100_knife_10_n03041632_14774.JPEG
alexnet,6,2,NaN,bottle,knife,c100,6402_con_dnn_c100_knife_10_n03041632_105581.JPEG
alexnet,6,3,NaN,knife,knife,c100,6403_con_dnn_c100_knife_10_n03041632_13509.JPEG
alexnet,6,4,NaN,keyboard,knife,c100,6404_con_dnn_c100_knife_10_n03041632_30821.JPEG
alexnet,6,5,NaN,knife,knife,c100,6405_con_dnn_c100_knife_10_n03041632_17338.JPEG
alexnet,6,6,NaN,knife,knife,c100,6406_con_dnn_c100_knife_10_n03041632_17349.JPEG
alexnet,6,7,NaN,knife,knife,c100,6407_con_dnn_c100_knife_10_n03041632_46091.JPEG
alexnet,6,8,NaN,knife,knife,c100,6408_con_dnn_c100_knife_10_n03041632_44133.JPEG
alexnet,6,9,NaN,knife,knife,c100,6409_con_dnn_c100_knife_10_n03041632_29276.JPEG
alexnet,6,10,NaN,chair,knife,c100,6410_con_dnn_c100_knife_10_n03041632_24541.JPEG
alexnet,6,11,NaN,keyboard,keyboard,c100,6411_con_dnn_c100_keyboard_10_n04505470_2235.JPEG
alexnet,6,12,NaN,keyboard,keyboard,c100,6412_con_dnn_c100_keyboard_10_n04505470_5011.JPEG
alexnet,6,13,NaN,keyboard,keyboard,c100,6413_con_dnn_c100_keyboard_10_n04505470_5054.JPEG
alexnet,6,14,NaN,keyboard,keyboard,c100,6414_con_dnn_c100_keyboard_10_n04505470_4732.JPEG
alexnet,6,15,NaN,keyboard,keyboard,c100,6415_con_dnn_c100_keyboard_10_n03085013_18510.JPEG
alexnet,6,16,NaN,keyboard,keyboard,c100,6416_con_dnn_c100_keyboard_10_n03085013_9146.JPEG
alexnet,6,17,NaN,keyboard,keyboard,c100,6417_con_dnn_c100_keyboard_10_n03085013_22960.JPEG
alexnet,6,18,NaN,keyboard,keyboard,c100,6418_con_dnn_c100_keyboard_10_n03085013_12323.JPEG
alexnet,6,19,NaN,keyboard,keyboard,c100,6419_con_dnn_c100_keyboard_10_n04505470_3481.JPEG
alexnet,6,20,NaN,keyboard,keyboard,c100,6420_con_dnn_c100_keyboard_10_n03085013_5622.JPEG
alexnet,6,21,NaN,elephant,elephant,c100,6421_con_dnn_c100_elephant_10_n02504013_1944.JPEG
alexnet,6,22,NaN,elephant,elephant,c100,6422_con_dnn_c100_elephant_10_n02504013_2986.JPEG
alexnet,6,23,NaN,elephant,elephant,c100,6423_con_dnn_c100_elephant_10_n02504013_524.JPEG
alexnet,6,24,NaN,elephant,elephant,c100,6424_con_dnn_c100_elephant_10_n02504013_6515.JPEG
alexnet,6,25,NaN,dog,elephant,c100,6425_con_dnn_c100_elephant_10_n02504013_5070.JPEG
alexnet,6,26,NaN,dog,elephant,c100,6426_con_dnn_c100_elephant_10_n02504013_5945.JPEG
alexnet,6,27,NaN,elephant,elephant,c100,6427_con_dnn_c100_elephant_10_n02504013_5501.JPEG
alexnet,6,28,NaN,elephant,elephant,c100,6428_con_dnn_c100_elephant_10_n02504458_62.JPEG
alexnet,6,29,NaN,elephant,elephant,c100,6429_con_dnn_c100_elephant_10_n02504458_493.JPEG
alexnet,6,30,NaN,elephant,elephant,c100,6430_con_dnn_c100_elephant_10_n02504458_2662.JPEG
alexnet,6,31,NaN,bicycle,bicycle,c100,6431_con_dnn_c100_bicycle_10_n03792782_35059.JPEG
alexnet,6,32,NaN,bicycle,bicycle,c100,6432_con_dnn_c100_bicycle_10_n02835271_21294.JPEG
alexnet,6,33,NaN,bicycle,bicycle,c100,6433_con_dnn_c100_bicycle_10_n02835271_12246.JPEG
alexnet,6,34,NaN,bicycle,bicycle,c100,6434_con_dnn_c100_bicycle_10_n02835271_16850.JPEG
alexnet,6,35,NaN,bicycle,bicycle,c100,6435_con_dnn_c100_bicycle_10_n02835271_9594.JPEG
alexnet,6,36,NaN,bicycle,bicycle,c100,6436_con_dnn_c100_bicycle_10_n03792782_13464.JPEG
alexnet,6,37,NaN,bicycle,bicycle,c100,6437_con_dnn_c100_bicycle_10_n03792782_18771.JPEG
alexnet,6,38,NaN,bicycle,bicycle,c100,6438_con_dnn_c100_bicycle_10_n03792782_6761.JPEG
alexnet,6,39,NaN,bicycle,bicycle,c100,6439_con_dnn_c100_bicycle_10_n03792782_9205.JPEG
alexnet,6,40,NaN,bicycle,bicycle,c100,6440_con_dnn_c100_bicycle_10_n03792782_933.JPEG
alexnet,6,41,NaN,airplane,airplane,c100,6441_con_dnn_c100_airplane_10_n02690373_6536.JPEG
alexnet,6,42,NaN,airplane,airplane,c100,6442_con_dnn_c100_airplane_10_n02690373_181.JPEG
alexnet,6,43,NaN,airplane,airplane,c100,6443_con_dnn_c100_airplane_10_n02690373_191.JPEG
alexnet,6,44,NaN,airplane,airplane,c100,6444_con_dnn_c100_airplane_10_n02690373_17157.JPEG
alexnet,6,45,NaN,airplane,airplane,c100,6445_con_dnn_c100_airplane_10_n02690373_7408.JPEG
alexnet,6,46,NaN,airplane,airplane,c100,6446_con_dnn_c100_airplane_10_n02690373_3729.JPEG
alexnet,6,47,NaN,airplane,airplane,c100,6447_con_dnn_c100_airplane_10_n02690373_9849.JPEG
alexnet,6,48,NaN,truck,airplane,c100,6448_con_dnn_c100_airplane_10_n02690373_5238.JPEG
alexnet,6,49,NaN,airplane,airplane,c100,6449_con_dnn_c100_airplane_10_n02690373_6212.JPEG
alexnet,6,50,NaN,airplane,airplane,c100,6450_con_dnn_c100_airplane_10_n02690373_18871.JPEG
alexnet,6,51,NaN,clock,clock,c100,6451_con_dnn_c100_clock_10_n02708093_1819.JPEG
alexnet,6,52,NaN,clock,clock,c100,6452_con_dnn_c100_clock_10_n03196217_11471.JPEG
alexnet,6,53,NaN,clock,clock,c100,6453_con_dnn_c100_clock_10_n03196217_8887.JPEG
alexnet,6,54,NaN,chair,clock,c100,6454_con_dnn_c100_clock_10_n03196217_1698.JPEG
alexnet,6,55,NaN,clock,clock,c100,6455_con_dnn_c100_clock_10_n03196217_6707.JPEG
alexnet,6,56,NaN,clock,clock,c100,6456_con_dnn_c100_clock_10_n04548280_3013.JPEG
alexnet,6,57,NaN,clock,clock,c100,6457_con_dnn_c100_clock_10_n03196217_8578.JPEG
alexnet,6,58,NaN,clock,clock,c100,6458_con_dnn_c100_clock_10_n04548280_160.JPEG
alexnet,6,59,NaN,clock,clock,c100,6459_con_dnn_c100_clock_10_n03196217_7401.JPEG
alexnet,6,60,NaN,clock,clock,c100,6460_con_dnn_c100_clock_10_n02708093_8047.JPEG
alexnet,6,61,NaN,oven,oven,c100,6461_con_dnn_c100_oven_10_n04111531_3470.JPEG
alexnet,6,62,NaN,oven,oven,c100,6462_con_dnn_c100_oven_10_n04111531_7945.JPEG
alexnet,6,63,NaN,oven,oven,c100,6463_con_dnn_c100_oven_10_n04111531_20953.JPEG
alexnet,6,64,NaN,oven,oven,c100,6464_con_dnn_c100_oven_10_n04111531_5727.JPEG
alexnet,6,65,NaN,keyboard,oven,c100,6465_con_dnn_c100_oven_10_n04111531_2066.JPEG
alexnet,6,66,NaN,oven,oven,c100,6466_con_dnn_c100_oven_10_n04111531_7139.JPEG
alexnet,6,67,NaN,dog,oven,c100,6467_con_dnn_c100_oven_10_n04111531_15087.JPEG
alexnet,6,68,NaN,truck,oven,c100,6468_con_dnn_c100_oven_10_n04111531_2721.JPEG
alexnet,6,69,NaN,oven,oven,c100,6469_con_dnn_c100_oven_10_n04111531_20407.JPEG
alexnet,6,70,NaN,bear,oven,c100,6470_con_dnn_c100_oven_10_n04111531_10399.JPEG
alexnet,6,71,NaN,chair,chair,c100,6471_con_dnn_c100_chair_10_n04099969_28601.JPEG
alexnet,6,72,NaN,chair,chair,c100,6472_con_dnn_c100_chair_10_n02791124_321.JPEG
alexnet,6,73,NaN,chair,chair,c100,6473_con_dnn_c100_chair_10_n03376595_19348.JPEG
alexnet,6,74,NaN,chair,chair,c100,6474_con_dnn_c100_chair_10_n04099969_4100.JPEG
alexnet,6,75,NaN,chair,chair,c100,6475_con_dnn_c100_chair_10_n03376595_5.JPEG
alexnet,6,76,NaN,clock,chair,c100,6476_con_dnn_c100_chair_10_n04429376_34379.JPEG
alexnet,6,77,NaN,chair,chair,c100,6477_con_dnn_c100_chair_10_n04429376_28352.JPEG
alexnet,6,78,NaN,chair,chair,c100,6478_con_dnn_c100_chair_10_n04099969_16619.JPEG
alexnet,6,79,NaN,chair,chair,c100,6479_con_dnn_c100_chair_10_n02791124_754.JPEG
alexnet,6,80,NaN,chair,chair,c100,6480_con_dnn_c100_chair_10_n04429376_9740.JPEG
alexnet,6,81,NaN,bear,bear,c100,6481_con_dnn_c100_bear_10_n02134084_8240.JPEG
alexnet,6,82,NaN,dog,bear,c100,6482_con_dnn_c100_bear_10_n02132136_13864.JPEG
alexnet,6,83,NaN,bear,bear,c100,6483_con_dnn_c100_bear_10_n02133161_10.JPEG
alexnet,6,84,NaN,bottle,bear,c100,6484_con_dnn_c100_bear_10_n02134084_7145.JPEG
alexnet,6,85,NaN,bear,bear,c100,6485_con_dnn_c100_bear_10_n02134418_24458.JPEG
alexnet,6,86,NaN,dog,bear,c100,6486_con_dnn_c100_bear_10_n02133161_4882.JPEG
alexnet,6,87,NaN,bear,bear,c100,6487_con_dnn_c100_bear_10_n02133161_4957.JPEG
alexnet,6,88,NaN,bear,bear,c100,6488_con_dnn_c100_bear_10_n02134084_1256.JPEG
alexnet,6,89,NaN,dog,bear,c100,6489_con_dnn_c100_bear_10_n02132136_1795.JPEG
alexnet,6,90,NaN,dog,bear,c100,6490_con_dnn_c100_bear_10_n02134084_16841.JPEG
alexnet,6,91,NaN,chair,boat,c100,6491_con_dnn_c100_boat_10_n03344393_8143.JPEG
alexnet,6,92,NaN,boat,boat,c100,6492_con_dnn_c100_boat_10_n03662601_115.JPEG
alexnet,6,93,NaN,boat,boat,c100,6493_con_dnn_c100_boat_10_n04612504_23136.JPEG
alexnet,6,94,NaN,boat,boat,c100,6494_con_dnn_c100_boat_10_n02951358_1305.JPEG
alexnet,6,95,NaN,truck,boat,c100,6495_con_dnn_c100_boat_10_n03662601_17617.JPEG
alexnet,6,96,NaN,boat,boat,c100,6496_con_dnn_c100_boat_10_n04273569_2667.JPEG
alexnet,6,97,NaN,boat,boat,c100,6497_con_dnn_c100_boat_10_n03344393_5625.JPEG
alexnet,6,98,NaN,boat,boat,c100,6498_con_dnn_c100_boat_10_n03662601_24882.JPEG
alexnet,6,99,NaN,boat,boat,c100,6499_con_dnn_c100_boat_10_n04612504_2262.JPEG
alexnet,6,100,NaN,boat,boat,c100,6500_con_dnn_c100_boat_10_n03344393_5126.JPEG
alexnet,6,101,NaN,dog,cat,c100,6501_con_dnn_c100_cat_10_n02125311_16319.JPEG
alexnet,6,102,NaN,cat,cat,c100,6502_con_dnn_c100_cat_10_n02123045_5189.JPEG
alexnet,6,103,NaN,dog,cat,c100,6503_con_dnn_c100_cat_10_n02125311_46969.JPEG
alexnet,6,104,NaN,cat,cat,c100,6504_con_dnn_c100_cat_10_n02124075_1575.JPEG
alexnet,6,105,NaN,cat,cat,c100,6505_con_dnn_c100_cat_10_n02123045_436.JPEG
alexnet,6,106,NaN,cat,cat,c100,6506_con_dnn_c100_cat_10_n02123045_3027.JPEG
alexnet,6,107,NaN,cat,cat,c100,6507_con_dnn_c100_cat_10_n02123159_698.JPEG
alexnet,6,108,NaN,chair,cat,c100,6508_con_dnn_c100_cat_10_n02124075_9889.JPEG
alexnet,6,109,NaN,dog,cat,c100,6509_con_dnn_c100_cat_10_n02123045_2286.JPEG
alexnet,6,110,NaN,cat,cat,c100,6510_con_dnn_c100_cat_10_n02125311_28114.JPEG
alexnet,6,111,NaN,bottle,bottle,c100,6511_con_dnn_c100_bottle_10_n02823428_4023.JPEG
alexnet,6,112,NaN,oven,bottle,c100,6512_con_dnn_c100_bottle_10_n04557648_2005.JPEG
alexnet,6,113,NaN,bottle,bottle,c100,6513_con_dnn_c100_bottle_10_n04560804_15341.JPEG
alexnet,6,114,NaN,bottle,bottle,c100,6514_con_dnn_c100_bottle_10_n04591713_1257.JPEG
alexnet,6,115,NaN,bottle,bottle,c100,6515_con_dnn_c100_bottle_10_n03937543_1802.JPEG
alexnet,6,116,NaN,chair,bottle,c100,6516_con_dnn_c100_bottle_10_n04557648_834.JPEG
alexnet,6,117,NaN,bottle,bottle,c100,6517_con_dnn_c100_bottle_10_n02823428_6823.JPEG
alexnet,6,118,NaN,bottle,bottle,c100,6518_con_dnn_c100_bottle_10_n04591713_3585.JPEG
alexnet,6,119,NaN,bottle,bottle,c100,6519_con_dnn_c100_bottle_10_n03983396_498.JPEG
alexnet,6,120,NaN,bottle,bottle,c100,6520_con_dnn_c100_bottle_10_n04591713_5328.JPEG
alexnet,6,121,NaN,truck,truck,c100,6521_con_dnn_c100_truck_10_n03796401_3486.JPEG
alexnet,6,122,NaN,truck,truck,c100,6522_con_dnn_c100_truck_10_n03417042_53.JPEG
alexnet,6,123,NaN,truck,truck,c100,6523_con_dnn_c100_truck_10_n03417042_25992.JPEG
alexnet,6,124,NaN,truck,truck,c100,6524_con_dnn_c100_truck_10_n04467665_59631.JPEG
alexnet,6,125,NaN,truck,truck,c100,6525_con_dnn_c100_truck_10_n04467665_71736.JPEG
alexnet,6,126,NaN,car,truck,c100,6526_con_dnn_c100_truck_10_n03796401_20384.JPEG
alexnet,6,127,NaN,truck,truck,c100,6527_con_dnn_c100_truck_10_n03417042_5648.JPEG
alexnet,6,128,NaN,truck,truck,c100,6528_con_dnn_c100_truck_10_n03417042_1775.JPEG
alexnet,6,129,NaN,truck,truck,c100,6529_con_dnn_c100_truck_10_n03796401_21464.JPEG
alexnet,6,130,NaN,truck,truck,c100,6530_con_dnn_c100_truck_10_n03417042_5234.JPEG
alexnet,6,131,NaN,car,car,c100,6531_con_dnn_c100_car_10_n04285008_2727.JPEG
alexnet,6,132,NaN,truck,car,c100,6532_con_dnn_c100_car_10_n03100240_16646.JPEG
alexnet,6,133,NaN,car,car,c100,6533_con_dnn_c100_car_10_n04285008_2560.JPEG
alexnet,6,134,NaN,car,car,c100,6534_con_dnn_c100_car_10_n03100240_7458.JPEG
alexnet,6,135,NaN,car,car,c100,6535_con_dnn_c100_car_10_n03100240_15778.JPEG
alexnet,6,136,NaN,car,car,c100,6536_con_dnn_c100_car_10_n04285008_2841.JPEG
alexnet,6,137,NaN,car,car,c100,6537_con_dnn_c100_car_10_n03100240_18270.JPEG
alexnet,6,138,NaN,car,car,c100,6538_con_dnn_c100_car_10_n02814533_39597.JPEG
alexnet,6,139,NaN,car,car,c100,6539_con_dnn_c100_car_10_n03100240_6450.JPEG
alexnet,6,140,NaN,car,car,c100,6540_con_dnn_c100_car_10_n03100240_6799.JPEG
alexnet,6,141,NaN,bird,bird,c100,6541_con_dnn_c100_bird_10_n01796340_17191.JPEG
alexnet,6,142,NaN,bird,bird,c100,6542_con_dnn_c100_bird_10_n01817953_16628.JPEG
alexnet,6,143,NaN,bird,bird,c100,6543_con_dnn_c100_bird_10_n01537544_185.JPEG
alexnet,6,144,NaN,bird,bird,c100,6544_con_dnn_c100_bird_10_n02013706_2105.JPEG
alexnet,6,145,NaN,bird,bird,c100,6545_con_dnn_c100_bird_10_n02002724_4241.JPEG
alexnet,6,146,NaN,bird,bird,c100,6546_con_dnn_c100_bird_10_n02007558_1116.JPEG
alexnet,6,147,NaN,bird,bird,c100,6547_con_dnn_c100_bird_10_n01819313_4654.JPEG
alexnet,6,148,NaN,bird,bird,c100,6548_con_dnn_c100_bird_10_n01855032_4728.JPEG
alexnet,6,149,NaN,chair,bird,c100,6549_con_dnn_c100_bird_10_n02006656_3185.JPEG
alexnet,6,150,NaN,bird,bird,c100,6550_con_dnn_c100_bird_10_n01530575_9954.JPEG
alexnet,6,151,NaN,dog,dog,c100,6551_con_dnn_c100_dog_10_n02094433_10083.JPEG
alexnet,6,152,NaN,dog,dog,c100,6552_con_dnn_c100_dog_10_n02102040_1442.JPEG
alexnet,6,153,NaN,dog,dog,c100,6553_con_dnn_c100_dog_10_n02100583_23060.JPEG
alexnet,6,154,NaN,dog,dog,c100,6554_con_dnn_c100_dog_10_n02113712_3178.JPEG
alexnet,6,155,NaN,dog,dog,c100,6555_con_dnn_c100_dog_10_n02105641_14497.JPEG
alexnet,6,156,NaN,dog,dog,c100,6556_con_dnn_c100_dog_10_n02108000_5342.JPEG
alexnet,6,157,NaN,dog,dog,c100,6557_con_dnn_c100_dog_10_n02105056_335.JPEG
alexnet,6,158,NaN,dog,dog,c100,6558_con_dnn_c100_dog_10_n02086240_2573.JPEG
alexnet,6,159,NaN,dog,dog,c100,6559_con_dnn_c100_dog_10_n02100877_135.JPEG
alexnet,6,160,NaN,dog,dog,c100,6560_con_dnn_c100_dog_10_n02108000_6658.JPEG
alexnet,6,161,NaN,knife,knife,c50,6561_con_dnn_c50_knife_10_n03041632_11186.JPEG
alexnet,6,162,NaN,knife,knife,c50,6562_con_dnn_c50_knife_10_n03041632_41077.JPEG
alexnet,6,163,NaN,bottle,knife,c50,6563_con_dnn_c50_knife_10_n03041632_14916.JPEG
alexnet,6,164,NaN,knife,knife,c50,6564_con_dnn_c50_knife_10_n03041632_29355.JPEG
alexnet,6,165,NaN,bottle,knife,c50,6565_con_dnn_c50_knife_10_n03041632_29285.JPEG
alexnet,6,166,NaN,chair,knife,c50,6566_con_dnn_c50_knife_10_n03041632_24264.JPEG
alexnet,6,167,NaN,chair,knife,c50,6567_con_dnn_c50_knife_10_n03041632_17285.JPEG
alexnet,6,168,NaN,clock,knife,c50,6568_con_dnn_c50_knife_10_n03041632_49163.JPEG
alexnet,6,169,NaN,knife,knife,c50,6569_con_dnn_c50_knife_10_n03041632_30958.JPEG
alexnet,6,170,NaN,bottle,knife,c50,6570_con_dnn_c50_knife_10_n03041632_98864.JPEG
alexnet,6,171,NaN,keyboard,keyboard,c50,6571_con_dnn_c50_keyboard_10_n04505470_990.JPEG
alexnet,6,172,NaN,keyboard,keyboard,c50,6572_con_dnn_c50_keyboard_10_n03085013_15432.JPEG
alexnet,6,173,NaN,keyboard,keyboard,c50,6573_con_dnn_c50_keyboard_10_n03085013_22027.JPEG
alexnet,6,174,NaN,keyboard,keyboard,c50,6574_con_dnn_c50_keyboard_10_n04505470_2595.JPEG
alexnet,6,175,NaN,keyboard,keyboard,c50,6575_con_dnn_c50_keyboard_10_n03085013_24591.JPEG
alexnet,6,176,NaN,keyboard,keyboard,c50,6576_con_dnn_c50_keyboard_10_n03085013_6904.JPEG
alexnet,6,177,NaN,keyboard,keyboard,c50,6577_con_dnn_c50_keyboard_10_n03085013_6862.JPEG
alexnet,6,178,NaN,keyboard,keyboard,c50,6578_con_dnn_c50_keyboard_10_n04505470_10211.JPEG
alexnet,6,179,NaN,keyboard,keyboard,c50,6579_con_dnn_c50_keyboard_10_n04505470_2737.JPEG
alexnet,6,180,NaN,keyboard,keyboard,c50,6580_con_dnn_c50_keyboard_10_n04505470_1157.JPEG
alexnet,6,181,NaN,elephant,elephant,c50,6581_con_dnn_c50_elephant_10_n02504013_644.JPEG
alexnet,6,182,NaN,elephant,elephant,c50,6582_con_dnn_c50_elephant_10_n02504458_337.JPEG
alexnet,6,183,NaN,elephant,elephant,c50,6583_con_dnn_c50_elephant_10_n02504458_3505.JPEG
alexnet,6,184,NaN,elephant,elephant,c50,6584_con_dnn_c50_elephant_10_n02504013_9149.JPEG
alexnet,6,185,NaN,elephant,elephant,c50,6585_con_dnn_c50_elephant_10_n02504458_8183.JPEG
alexnet,6,186,NaN,elephant,elephant,c50,6586_con_dnn_c50_elephant_10_n02504013_6722.JPEG
alexnet,6,187,NaN,cat,elephant,c50,6587_con_dnn_c50_elephant_10_n02504458_7621.JPEG
alexnet,6,188,NaN,elephant,elephant,c50,6588_con_dnn_c50_elephant_10_n02504458_4997.JPEG
alexnet,6,189,NaN,elephant,elephant,c50,6589_con_dnn_c50_elephant_10_n02504013_8100.JPEG
alexnet,6,190,NaN,elephant,elephant,c50,6590_con_dnn_c50_elephant_10_n02504013_8497.JPEG
alexnet,6,191,NaN,bicycle,bicycle,c50,6591_con_dnn_c50_bicycle_10_n03792782_139.JPEG
alexnet,6,192,NaN,dog,bicycle,c50,6592_con_dnn_c50_bicycle_10_n02835271_9904.JPEG
alexnet,6,193,NaN,bicycle,bicycle,c50,6593_con_dnn_c50_bicycle_10_n03792782_12096.JPEG
alexnet,6,194,NaN,dog,bicycle,c50,6594_con_dnn_c50_bicycle_10_n03792782_1424.JPEG
alexnet,6,195,NaN,bicycle,bicycle,c50,6595_con_dnn_c50_bicycle_10_n03792782_50335.JPEG
alexnet,6,196,NaN,bicycle,bicycle,c50,6596_con_dnn_c50_bicycle_10_n02835271_22061.JPEG
alexnet,6,197,NaN,dog,bicycle,c50,6597_con_dnn_c50_bicycle_10_n02835271_7638.JPEG
alexnet,6,198,NaN,chair,bicycle,c50,6598_con_dnn_c50_bicycle_10_n03792782_56348.JPEG
alexnet,6,199,NaN,bicycle,bicycle,c50,6599_con_dnn_c50_bicycle_10_n03792782_8287.JPEG
alexnet,6,200,NaN,bicycle,bicycle,c50,6600_con_dnn_c50_bicycle_10_n03792782_1747.JPEG
alexnet,6,201,NaN,airplane,airplane,c50,6601_con_dnn_c50_airplane_10_n02690373_9300.JPEG
alexnet,6,202,NaN,airplane,airplane,c50,6602_con_dnn_c50_airplane_10_n02690373_3153.JPEG
alexnet,6,203,NaN,airplane,airplane,c50,6603_con_dnn_c50_airplane_10_n02690373_2217.JPEG
alexnet,6,204,NaN,airplane,airplane,c50,6604_con_dnn_c50_airplane_10_n02690373_2155.JPEG
alexnet,6,205,NaN,boat,airplane,c50,6605_con_dnn_c50_airplane_10_n02690373_1933.JPEG
alexnet,6,206,NaN,boat,airplane,c50,6606_con_dnn_c50_airplane_10_n02690373_1831.JPEG
alexnet,6,207,NaN,airplane,airplane,c50,6607_con_dnn_c50_airplane_10_n02690373_7387.JPEG
alexnet,6,208,NaN,dog,airplane,c50,6608_con_dnn_c50_airplane_10_n02690373_3272.JPEG
alexnet,6,209,NaN,airplane,airplane,c50,6609_con_dnn_c50_airplane_10_n02690373_9317.JPEG
alexnet,6,210,NaN,airplane,airplane,c50,6610_con_dnn_c50_airplane_10_n02690373_9318.JPEG
alexnet,6,211,NaN,clock,clock,c50,6611_con_dnn_c50_clock_10_n03196217_2575.JPEG
alexnet,6,212,NaN,clock,clock,c50,6612_con_dnn_c50_clock_10_n02708093_2025.JPEG
alexnet,6,213,NaN,clock,clock,c50,6613_con_dnn_c50_clock_10_n04548280_1474.JPEG
alexnet,6,214,NaN,keyboard,clock,c50,6614_con_dnn_c50_clock_10_n03196217_2963.JPEG
alexnet,6,215,NaN,clock,clock,c50,6615_con_dnn_c50_clock_10_n04548280_5426.JPEG
alexnet,6,216,NaN,clock,clock,c50,6616_con_dnn_c50_clock_10_n04548280_7153.JPEG
alexnet,6,217,NaN,clock,clock,c50,6617_con_dnn_c50_clock_10_n02708093_1345.JPEG
alexnet,6,218,NaN,chair,clock,c50,6618_con_dnn_c50_clock_10_n03196217_8943.JPEG
alexnet,6,219,NaN,clock,clock,c50,6619_con_dnn_c50_clock_10_n02708093_6352.JPEG
alexnet,6,220,NaN,clock,clock,c50,6620_con_dnn_c50_clock_10_n02708093_1246.JPEG
alexnet,6,221,NaN,oven,oven,c50,6621_con_dnn_c50_oven_10_n04111531_5792.JPEG
alexnet,6,222,NaN,dog,oven,c50,6622_con_dnn_c50_oven_10_n04111531_20056.JPEG
alexnet,6,223,NaN,oven,oven,c50,6623_con_dnn_c50_oven_10_n04111531_12788.JPEG
alexnet,6,224,NaN,clock,oven,c50,6624_con_dnn_c50_oven_10_n04111531_5336.JPEG
alexnet,6,225,NaN,oven,oven,c50,6625_con_dnn_c50_oven_10_n04111531_9026.JPEG
alexnet,6,226,NaN,oven,oven,c50,6626_con_dnn_c50_oven_10_n04111531_4944.JPEG
alexnet,6,227,NaN,truck,oven,c50,6627_con_dnn_c50_oven_10_n04111531_283.JPEG
alexnet,6,228,NaN,oven,oven,c50,6628_con_dnn_c50_oven_10_n04111531_3286.JPEG
alexnet,6,229,NaN,oven,oven,c50,6629_con_dnn_c50_oven_10_n04111531_7603.JPEG
alexnet,6,230,NaN,oven,oven,c50,6630_con_dnn_c50_oven_10_n04111531_18154.JPEG
alexnet,6,231,NaN,chair,chair,c50,6631_con_dnn_c50_chair_10_n04429376_8224.JPEG
alexnet,6,232,NaN,chair,chair,c50,6632_con_dnn_c50_chair_10_n02791124_3731.JPEG
alexnet,6,233,NaN,chair,chair,c50,6633_con_dnn_c50_chair_10_n03376595_14240.JPEG
alexnet,6,234,NaN,chair,chair,c50,6634_con_dnn_c50_chair_10_n04099969_13841.JPEG
alexnet,6,235,NaN,chair,chair,c50,6635_con_dnn_c50_chair_10_n03376595_11352.JPEG
alexnet,6,236,NaN,chair,chair,c50,6636_con_dnn_c50_chair_10_n04099969_1556.JPEG
alexnet,6,237,NaN,chair,chair,c50,6637_con_dnn_c50_chair_10_n04099969_13555.JPEG
alexnet,6,238,NaN,chair,chair,c50,6638_con_dnn_c50_chair_10_n03376595_10387.JPEG
alexnet,6,239,NaN,dog,chair,c50,6639_con_dnn_c50_chair_10_n02791124_9744.JPEG
alexnet,6,240,NaN,chair,chair,c50,6640_con_dnn_c50_chair_10_n02791124_6117.JPEG
alexnet,6,241,NaN,bear,bear,c50,6641_con_dnn_c50_bear_10_n02134418_380.JPEG
alexnet,6,242,NaN,bear,bear,c50,6642_con_dnn_c50_bear_10_n02134084_12428.JPEG
alexnet,6,243,NaN,bear,bear,c50,6643_con_dnn_c50_bear_10_n02133161_232.JPEG
alexnet,6,244,NaN,bear,bear,c50,6644_con_dnn_c50_bear_10_n02132136_10352.JPEG
alexnet,6,245,NaN,bear,bear,c50,6645_con_dnn_c50_bear_10_n02134084_463.JPEG
alexnet,6,246,NaN,bear,bear,c50,6646_con_dnn_c50_bear_10_n02132136_15450.JPEG
alexnet,6,247,NaN,bear,bear,c50,6647_con_dnn_c50_bear_10_n02134084_9231.JPEG
alexnet,6,248,NaN,bear,bear,c50,6648_con_dnn_c50_bear_10_n02133161_10441.JPEG
alexnet,6,249,NaN,bear,bear,c50,6649_con_dnn_c50_bear_10_n02132136_15001.JPEG
alexnet,6,250,NaN,dog,bear,c50,6650_con_dnn_c50_bear_10_n02134418_3952.JPEG
alexnet,6,251,NaN,boat,boat,c50,6651_con_dnn_c50_boat_10_n04273569_3892.JPEG
alexnet,6,252,NaN,boat,boat,c50,6652_con_dnn_c50_boat_10_n04273569_5753.JPEG
alexnet,6,253,NaN,boat,boat,c50,6653_con_dnn_c50_boat_10_n04273569_7355.JPEG
alexnet,6,254,NaN,boat,boat,c50,6654_con_dnn_c50_boat_10_n03662601_28120.JPEG
alexnet,6,255,NaN,boat,boat,c50,6655_con_dnn_c50_boat_10_n03344393_7557.JPEG
alexnet,6,256,NaN,boat,boat,c50,6656_con_dnn_c50_boat_10_n03344393_438.JPEG
alexnet,6,257,NaN,boat,boat,c50,6657_con_dnn_c50_boat_10_n04273569_5371.JPEG
alexnet,6,258,NaN,boat,boat,c50,6658_con_dnn_c50_boat_10_n03344393_8869.JPEG
alexnet,6,259,NaN,dog,boat,c50,6659_con_dnn_c50_boat_10_n02951358_2685.JPEG
alexnet,6,260,NaN,truck,boat,c50,6660_con_dnn_c50_boat_10_n03662601_28846.JPEG
alexnet,6,261,NaN,bear,cat,c50,6661_con_dnn_c50_cat_10_n02123597_1798.JPEG
alexnet,6,262,NaN,cat,cat,c50,6662_con_dnn_c50_cat_10_n02124075_14165.JPEG
alexnet,6,263,NaN,cat,cat,c50,6663_con_dnn_c50_cat_10_n02123045_10887.JPEG
alexnet,6,264,NaN,cat,cat,c50,6664_con_dnn_c50_cat_10_n02123159_1272.JPEG
alexnet,6,265,NaN,dog,cat,c50,6665_con_dnn_c50_cat_10_n02123394_7089.JPEG
alexnet,6,266,NaN,cat,cat,c50,6666_con_dnn_c50_cat_10_n02125311_3742.JPEG
alexnet,6,267,NaN,cat,cat,c50,6667_con_dnn_c50_cat_10_n02123045_5195.JPEG
alexnet,6,268,NaN,dog,cat,c50,6668_con_dnn_c50_cat_10_n02123394_7046.JPEG
alexnet,6,269,NaN,cat,cat,c50,6669_con_dnn_c50_cat_10_n02123394_2314.JPEG
alexnet,6,270,NaN,cat,cat,c50,6670_con_dnn_c50_cat_10_n02124075_6510.JPEG
alexnet,6,271,NaN,bottle,bottle,c50,6671_con_dnn_c50_bottle_10_n03937543_1844.JPEG
alexnet,6,272,NaN,bottle,bottle,c50,6672_con_dnn_c50_bottle_10_n02823428_720.JPEG
alexnet,6,273,NaN,bottle,bottle,c50,6673_con_dnn_c50_bottle_10_n04579145_2016.JPEG
alexnet,6,274,NaN,bottle,bottle,c50,6674_con_dnn_c50_bottle_10_n04560804_5979.JPEG
alexnet,6,275,NaN,clock,bottle,c50,6675_con_dnn_c50_bottle_10_n03983396_4364.JPEG
alexnet,6,276,NaN,bottle,bottle,c50,6676_con_dnn_c50_bottle_10_n04560804_12411.JPEG
alexnet,6,277,NaN,bottle,bottle,c50,6677_con_dnn_c50_bottle_10_n02823428_5947.JPEG
alexnet,6,278,NaN,bottle,bottle,c50,6678_con_dnn_c50_bottle_10_n03937543_2357.JPEG
alexnet,6,279,NaN,bottle,bottle,c50,6679_con_dnn_c50_bottle_10_n03937543_10217.JPEG
alexnet,6,280,NaN,bottle,bottle,c50,6680_con_dnn_c50_bottle_10_n02823428_1832.JPEG
alexnet,6,281,NaN,truck,truck,c50,6681_con_dnn_c50_truck_10_n03796401_540.JPEG
alexnet,6,282,NaN,truck,truck,c50,6682_con_dnn_c50_truck_10_n04467665_41973.JPEG
alexnet,6,283,NaN,truck,truck,c50,6683_con_dnn_c50_truck_10_n03417042_7547.JPEG
alexnet,6,284,NaN,chair,truck,c50,6684_con_dnn_c50_truck_10_n03417042_975.JPEG
alexnet,6,285,NaN,truck,truck,c50,6685_con_dnn_c50_truck_10_n03796401_3665.JPEG
alexnet,6,286,NaN,truck,truck,c50,6686_con_dnn_c50_truck_10_n03796401_28309.JPEG
alexnet,6,287,NaN,truck,truck,c50,6687_con_dnn_c50_truck_10_n03796401_12117.JPEG
alexnet,6,288,NaN,truck,truck,c50,6688_con_dnn_c50_truck_10_n03417042_28794.JPEG
alexnet,6,289,NaN,truck,truck,c50,6689_con_dnn_c50_truck_10_n03417042_29083.JPEG
alexnet,6,290,NaN,truck,truck,c50,6690_con_dnn_c50_truck_10_n03417042_29074.JPEG
alexnet,6,291,NaN,chair,car,c50,6691_con_dnn_c50_car_10_n03100240_5773.JPEG
alexnet,6,292,NaN,car,car,c50,6692_con_dnn_c50_car_10_n04285008_11893.JPEG
alexnet,6,293,NaN,car,car,c50,6693_con_dnn_c50_car_10_n04285008_9383.JPEG
alexnet,6,294,NaN,car,car,c50,6694_con_dnn_c50_car_10_n04285008_6877.JPEG
alexnet,6,295,NaN,truck,car,c50,6695_con_dnn_c50_car_10_n03100240_15626.JPEG
alexnet,6,296,NaN,truck,car,c50,6696_con_dnn_c50_car_10_n04285008_2056.JPEG
alexnet,6,297,NaN,truck,car,c50,6697_con_dnn_c50_car_10_n02814533_29484.JPEG
alexnet,6,298,NaN,car,car,c50,6698_con_dnn_c50_car_10_n03100240_6404.JPEG
alexnet,6,299,NaN,car,car,c50,6699_con_dnn_c50_car_10_n04285008_3882.JPEG
alexnet,6,300,NaN,car,car,c50,6700_con_dnn_c50_car_10_n03100240_350.JPEG
alexnet,6,301,NaN,bird,bird,c50,6701_con_dnn_c50_bird_10_n01622779_2.JPEG
alexnet,6,302,NaN,bottle,bird,c50,6702_con_dnn_c50_bird_10_n01820546_1326.JPEG
alexnet,6,303,NaN,bird,bird,c50,6703_con_dnn_c50_bird_10_n02002724_5262.JPEG
alexnet,6,304,NaN,bird,bird,c50,6704_con_dnn_c50_bird_10_n02018795_8858.JPEG
alexnet,6,305,NaN,bird,bird,c50,6705_con_dnn_c50_bird_10_n01534433_26622.JPEG
alexnet,6,306,NaN,cat,bird,c50,6706_con_dnn_c50_bird_10_n01820546_7049.JPEG
alexnet,6,307,NaN,bird,bird,c50,6707_con_dnn_c50_bird_10_n01820546_5794.JPEG
alexnet,6,308,NaN,bird,bird,c50,6708_con_dnn_c50_bird_10_n01614925_17660.JPEG
alexnet,6,309,NaN,bird,bird,c50,6709_con_dnn_c50_bird_10_n02009229_4567.JPEG
alexnet,6,310,NaN,bird,bird,c50,6710_con_dnn_c50_bird_10_n02018207_4000.JPEG
alexnet,6,311,NaN,dog,dog,c50,6711_con_dnn_c50_dog_10_n02095570_510.JPEG
alexnet,6,312,NaN,dog,dog,c50,6712_con_dnn_c50_dog_10_n02102973_5775.JPEG
alexnet,6,313,NaN,dog,dog,c50,6713_con_dnn_c50_dog_10_n02106550_1567.JPEG
alexnet,6,314,NaN,dog,dog,c50,6714_con_dnn_c50_dog_10_n02097209_1850.JPEG
alexnet,6,315,NaN,dog,dog,c50,6715_con_dnn_c50_dog_10_n02109961_25886.JPEG
alexnet,6,316,NaN,dog,dog,c50,6716_con_dnn_c50_dog_10_n02108915_4332.JPEG
alexnet,6,317,NaN,dog,dog,c50,6717_con_dnn_c50_dog_10_n02094258_5832.JPEG
alexnet,6,318,NaN,dog,dog,c50,6718_con_dnn_c50_dog_10_n02091032_4137.JPEG
alexnet,6,319,NaN,dog,dog,c50,6719_con_dnn_c50_dog_10_n02097130_11790.JPEG
alexnet,6,320,NaN,dog,dog,c50,6720_con_dnn_c50_dog_10_n02102040_1450.JPEG
alexnet,6,321,NaN,bottle,knife,c30,6721_con_dnn_c30_knife_10_n03041632_38996.JPEG
alexnet,6,322,NaN,bottle,knife,c30,6722_con_dnn_c30_knife_10_n03041632_32004.JPEG
alexnet,6,323,NaN,knife,knife,c30,6723_con_dnn_c30_knife_10_n03041632_42887.JPEG
alexnet,6,324,NaN,bottle,knife,c30,6724_con_dnn_c30_knife_10_n03041632_19971.JPEG
alexnet,6,325,NaN,keyboard,knife,c30,6725_con_dnn_c30_knife_10_n03041632_3023.JPEG
alexnet,6,326,NaN,bear,knife,c30,6726_con_dnn_c30_knife_10_n03041632_46112.JPEG
alexnet,6,327,NaN,knife,knife,c30,6727_con_dnn_c30_knife_10_n03041632_13130.JPEG
alexnet,6,328,NaN,keyboard,knife,c30,6728_con_dnn_c30_knife_10_n03041632_36834.JPEG
alexnet,6,329,NaN,bottle,knife,c30,6729_con_dnn_c30_knife_10_n03041632_25656.JPEG
alexnet,6,330,NaN,bottle,knife,c30,6730_con_dnn_c30_knife_10_n03041632_22734.JPEG
alexnet,6,331,NaN,keyboard,keyboard,c30,6731_con_dnn_c30_keyboard_10_n03085013_19565.JPEG
alexnet,6,332,NaN,keyboard,keyboard,c30,6732_con_dnn_c30_keyboard_10_n04505470_6662.JPEG
alexnet,6,333,NaN,keyboard,keyboard,c30,6733_con_dnn_c30_keyboard_10_n04505470_4294.JPEG
alexnet,6,334,NaN,keyboard,keyboard,c30,6734_con_dnn_c30_keyboard_10_n03085013_25671.JPEG
alexnet,6,335,NaN,chair,keyboard,c30,6735_con_dnn_c30_keyboard_10_n03085013_23962.JPEG
alexnet,6,336,NaN,keyboard,keyboard,c30,6736_con_dnn_c30_keyboard_10_n04505470_4917.JPEG
alexnet,6,337,NaN,keyboard,keyboard,c30,6737_con_dnn_c30_keyboard_10_n04505470_4652.JPEG
alexnet,6,338,NaN,keyboard,keyboard,c30,6738_con_dnn_c30_keyboard_10_n03085013_19008.JPEG
alexnet,6,339,NaN,keyboard,keyboard,c30,6739_con_dnn_c30_keyboard_10_n04505470_8603.JPEG
alexnet,6,340,NaN,keyboard,keyboard,c30,6740_con_dnn_c30_keyboard_10_n04505470_1820.JPEG
alexnet,6,341,NaN,elephant,elephant,c30,6741_con_dnn_c30_elephant_10_n02504013_20805.JPEG
alexnet,6,342,NaN,dog,elephant,c30,6742_con_dnn_c30_elephant_10_n02504013_438.JPEG
alexnet,6,343,NaN,elephant,elephant,c30,6743_con_dnn_c30_elephant_10_n02504013_22633.JPEG
alexnet,6,344,NaN,bear,elephant,c30,6744_con_dnn_c30_elephant_10_n02504013_24621.JPEG
alexnet,6,345,NaN,elephant,elephant,c30,6745_con_dnn_c30_elephant_10_n02504013_6855.JPEG
alexnet,6,346,NaN,elephant,elephant,c30,6746_con_dnn_c30_elephant_10_n02504013_4880.JPEG
alexnet,6,347,NaN,elephant,elephant,c30,6747_con_dnn_c30_elephant_10_n02504013_126.JPEG
alexnet,6,348,NaN,elephant,elephant,c30,6748_con_dnn_c30_elephant_10_n02504013_6710.JPEG
alexnet,6,349,NaN,elephant,elephant,c30,6749_con_dnn_c30_elephant_10_n02504458_8296.JPEG
alexnet,6,350,NaN,elephant,elephant,c30,6750_con_dnn_c30_elephant_10_n02504458_2037.JPEG
alexnet,6,351,NaN,chair,bicycle,c30,6751_con_dnn_c30_bicycle_10_n03792782_3349.JPEG
alexnet,6,352,NaN,bottle,bicycle,c30,6752_con_dnn_c30_bicycle_10_n03792782_5044.JPEG
alexnet,6,353,NaN,bicycle,bicycle,c30,6753_con_dnn_c30_bicycle_10_n02835271_21490.JPEG
alexnet,6,354,NaN,bicycle,bicycle,c30,6754_con_dnn_c30_bicycle_10_n03792782_10728.JPEG
alexnet,6,355,NaN,bottle,bicycle,c30,6755_con_dnn_c30_bicycle_10_n03792782_5404.JPEG
alexnet,6,356,NaN,bicycle,bicycle,c30,6756_con_dnn_c30_bicycle_10_n03792782_32915.JPEG
alexnet,6,357,NaN,bicycle,bicycle,c30,6757_con_dnn_c30_bicycle_10_n03792782_11350.JPEG
alexnet,6,358,NaN,bicycle,bicycle,c30,6758_con_dnn_c30_bicycle_10_n02835271_9092.JPEG
alexnet,6,359,NaN,bicycle,bicycle,c30,6759_con_dnn_c30_bicycle_10_n02835271_20062.JPEG
alexnet,6,360,NaN,bicycle,bicycle,c30,6760_con_dnn_c30_bicycle_10_n02835271_1851.JPEG
alexnet,6,361,NaN,airplane,airplane,c30,6761_con_dnn_c30_airplane_10_n02690373_3289.JPEG
alexnet,6,362,NaN,airplane,airplane,c30,6762_con_dnn_c30_airplane_10_n02690373_19749.JPEG
alexnet,6,363,NaN,airplane,airplane,c30,6763_con_dnn_c30_airplane_10_n02690373_303.JPEG
alexnet,6,364,NaN,airplane,airplane,c30,6764_con_dnn_c30_airplane_10_n02690373_9309.JPEG
alexnet,6,365,NaN,airplane,airplane,c30,6765_con_dnn_c30_airplane_10_n02690373_3451.JPEG
alexnet,6,366,NaN,airplane,airplane,c30,6766_con_dnn_c30_airplane_10_n02690373_13283.JPEG
alexnet,6,367,NaN,airplane,airplane,c30,6767_con_dnn_c30_airplane_10_n02690373_1815.JPEG
alexnet,6,368,NaN,airplane,airplane,c30,6768_con_dnn_c30_airplane_10_n02690373_12896.JPEG
alexnet,6,369,NaN,airplane,airplane,c30,6769_con_dnn_c30_airplane_10_n02690373_9673.JPEG
alexnet,6,370,NaN,airplane,airplane,c30,6770_con_dnn_c30_airplane_10_n02690373_10309.JPEG
alexnet,6,371,NaN,clock,clock,c30,6771_con_dnn_c30_clock_10_n04548280_7347.JPEG
alexnet,6,372,NaN,clock,clock,c30,6772_con_dnn_c30_clock_10_n02708093_3695.JPEG
alexnet,6,373,NaN,clock,clock,c30,6773_con_dnn_c30_clock_10_n02708093_7969.JPEG
alexnet,6,374,NaN,clock,clock,c30,6774_con_dnn_c30_clock_10_n04548280_7290.JPEG
alexnet,6,375,NaN,clock,clock,c30,6775_con_dnn_c30_clock_10_n04548280_3968.JPEG
alexnet,6,376,NaN,clock,clock,c30,6776_con_dnn_c30_clock_10_n02708093_3598.JPEG
alexnet,6,377,NaN,bottle,clock,c30,6777_con_dnn_c30_clock_10_n03196217_1613.JPEG
alexnet,6,378,NaN,clock,clock,c30,6778_con_dnn_c30_clock_10_n04548280_5470.JPEG
alexnet,6,379,NaN,clock,clock,c30,6779_con_dnn_c30_clock_10_n04548280_17198.JPEG
alexnet,6,380,NaN,clock,clock,c30,6780_con_dnn_c30_clock_10_n02708093_8340.JPEG
alexnet,6,381,NaN,bird,oven,c30,6781_con_dnn_c30_oven_10_n04111531_3702.JPEG
alexnet,6,382,NaN,oven,oven,c30,6782_con_dnn_c30_oven_10_n04111531_15582.JPEG
alexnet,6,383,NaN,oven,oven,c30,6783_con_dnn_c30_oven_10_n04111531_986.JPEG
alexnet,6,384,NaN,dog,oven,c30,6784_con_dnn_c30_oven_10_n04111531_21896.JPEG
alexnet,6,385,NaN,clock,oven,c30,6785_con_dnn_c30_oven_10_n04111531_9762.JPEG
alexnet,6,386,NaN,bird,oven,c30,6786_con_dnn_c30_oven_10_n04111531_8441.JPEG
alexnet,6,387,NaN,oven,oven,c30,6787_con_dnn_c30_oven_10_n04111531_11655.JPEG
alexnet,6,388,NaN,oven,oven,c30,6788_con_dnn_c30_oven_10_n04111531_24096.JPEG
alexnet,6,389,NaN,truck,oven,c30,6789_con_dnn_c30_oven_10_n04111531_9344.JPEG
alexnet,6,390,NaN,bottle,oven,c30,6790_con_dnn_c30_oven_10_n04111531_1612.JPEG
alexnet,6,391,NaN,chair,chair,c30,6791_con_dnn_c30_chair_10_n03376595_4912.JPEG
alexnet,6,392,NaN,chair,chair,c30,6792_con_dnn_c30_chair_10_n04099969_7368.JPEG
alexnet,6,393,NaN,keyboard,chair,c30,6793_con_dnn_c30_chair_10_n03376595_10149.JPEG
alexnet,6,394,NaN,chair,chair,c30,6794_con_dnn_c30_chair_10_n04099969_18953.JPEG
alexnet,6,395,NaN,chair,chair,c30,6795_con_dnn_c30_chair_10_n04429376_24612.JPEG
alexnet,6,396,NaN,chair,chair,c30,6796_con_dnn_c30_chair_10_n03376595_10100.JPEG
alexnet,6,397,NaN,chair,chair,c30,6797_con_dnn_c30_chair_10_n04429376_20837.JPEG
alexnet,6,398,NaN,chair,chair,c30,6798_con_dnn_c30_chair_10_n04099969_6230.JPEG
alexnet,6,399,NaN,chair,chair,c30,6799_con_dnn_c30_chair_10_n04099969_21455.JPEG
alexnet,6,400,NaN,chair,chair,c30,6800_con_dnn_c30_chair_10_n04429376_9275.JPEG
alexnet,6,401,NaN,bear,bear,c30,6801_con_dnn_c30_bear_10_n02134418_211.JPEG
alexnet,6,402,NaN,boat,bear,c30,6802_con_dnn_c30_bear_10_n02134084_13932.JPEG
alexnet,6,403,NaN,dog,bear,c30,6803_con_dnn_c30_bear_10_n02132136_12401.JPEG
alexnet,6,404,NaN,bear,bear,c30,6804_con_dnn_c30_bear_10_n02134084_21413.JPEG
alexnet,6,405,NaN,bear,bear,c30,6805_con_dnn_c30_bear_10_n02134418_4364.JPEG
alexnet,6,406,NaN,bear,bear,c30,6806_con_dnn_c30_bear_10_n02134084_2914.JPEG
alexnet,6,407,NaN,dog,bear,c30,6807_con_dnn_c30_bear_10_n02132136_961.JPEG
alexnet,6,408,NaN,bear,bear,c30,6808_con_dnn_c30_bear_10_n02134084_6381.JPEG
alexnet,6,409,NaN,dog,bear,c30,6809_con_dnn_c30_bear_10_n02134084_7871.JPEG
alexnet,6,410,NaN,bear,bear,c30,6810_con_dnn_c30_bear_10_n02134084_637.JPEG
alexnet,6,411,NaN,boat,boat,c30,6811_con_dnn_c30_boat_10_n03662601_17184.JPEG
alexnet,6,412,NaN,bottle,boat,c30,6812_con_dnn_c30_boat_10_n04273569_18067.JPEG
alexnet,6,413,NaN,bottle,boat,c30,6813_con_dnn_c30_boat_10_n04273569_14243.JPEG
alexnet,6,414,NaN,boat,boat,c30,6814_con_dnn_c30_boat_10_n04273569_34117.JPEG
alexnet,6,415,NaN,car,boat,c30,6815_con_dnn_c30_boat_10_n03344393_547.JPEG
alexnet,6,416,NaN,boat,boat,c30,6816_con_dnn_c30_boat_10_n03662601_17478.JPEG
alexnet,6,417,NaN,boat,boat,c30,6817_con_dnn_c30_boat_10_n02951358_5809.JPEG
alexnet,6,418,NaN,boat,boat,c30,6818_con_dnn_c30_boat_10_n03662601_27532.JPEG
alexnet,6,419,NaN,bird,boat,c30,6819_con_dnn_c30_boat_10_n02951358_12692.JPEG
alexnet,6,420,NaN,boat,boat,c30,6820_con_dnn_c30_boat_10_n02951358_10912.JPEG
alexnet,6,421,NaN,cat,cat,c30,6821_con_dnn_c30_cat_10_n02123159_1837.JPEG
alexnet,6,422,NaN,cat,cat,c30,6822_con_dnn_c30_cat_10_n02123597_8044.JPEG
alexnet,6,423,NaN,cat,cat,c30,6823_con_dnn_c30_cat_10_n02123159_543.JPEG
alexnet,6,424,NaN,bird,cat,c30,6824_con_dnn_c30_cat_10_n02123159_586.JPEG
alexnet,6,425,NaN,cat,cat,c30,6825_con_dnn_c30_cat_10_n02123597_13140.JPEG
alexnet,6,426,NaN,cat,cat,c30,6826_con_dnn_c30_cat_10_n02123394_1292.JPEG
alexnet,6,427,NaN,cat,cat,c30,6827_con_dnn_c30_cat_10_n02123045_571.JPEG
alexnet,6,428,NaN,bird,cat,c30,6828_con_dnn_c30_cat_10_n02125311_5986.JPEG
alexnet,6,429,NaN,elephant,cat,c30,6829_con_dnn_c30_cat_10_n02123394_720.JPEG
alexnet,6,430,NaN,cat,cat,c30,6830_con_dnn_c30_cat_10_n02124075_10750.JPEG
alexnet,6,431,NaN,bottle,bottle,c30,6831_con_dnn_c30_bottle_10_n03983396_5645.JPEG
alexnet,6,432,NaN,bottle,bottle,c30,6832_con_dnn_c30_bottle_10_n02823428_3954.JPEG
alexnet,6,433,NaN,bottle,bottle,c30,6833_con_dnn_c30_bottle_10_n03983396_10471.JPEG
alexnet,6,434,NaN,bear,bottle,c30,6834_con_dnn_c30_bottle_10_n04591713_1993.JPEG
alexnet,6,435,NaN,keyboard,bottle,c30,6835_con_dnn_c30_bottle_10_n04591713_4749.JPEG
alexnet,6,436,NaN,bird,bottle,c30,6836_con_dnn_c30_bottle_10_n04560804_15227.JPEG
alexnet,6,437,NaN,bottle,bottle,c30,6837_con_dnn_c30_bottle_10_n03983396_1758.JPEG
alexnet,6,438,NaN,bottle,bottle,c30,6838_con_dnn_c30_bottle_10_n04557648_12674.JPEG
alexnet,6,439,NaN,bottle,bottle,c30,6839_con_dnn_c30_bottle_10_n02823428_4154.JPEG
alexnet,6,440,NaN,bottle,bottle,c30,6840_con_dnn_c30_bottle_10_n04579145_1436.JPEG
alexnet,6,441,NaN,dog,truck,c30,6841_con_dnn_c30_truck_10_n03417042_7497.JPEG
alexnet,6,442,NaN,boat,truck,c30,6842_con_dnn_c30_truck_10_n03796401_14381.JPEG
alexnet,6,443,NaN,truck,truck,c30,6843_con_dnn_c30_truck_10_n04467665_531.JPEG
alexnet,6,444,NaN,truck,truck,c30,6844_con_dnn_c30_truck_10_n04467665_34030.JPEG
alexnet,6,445,NaN,truck,truck,c30,6845_con_dnn_c30_truck_10_n03417042_25224.JPEG
alexnet,6,446,NaN,truck,truck,c30,6846_con_dnn_c30_truck_10_n03417042_3739.JPEG
alexnet,6,447,NaN,truck,truck,c30,6847_con_dnn_c30_truck_10_n03417042_17817.JPEG
alexnet,6,448,NaN,truck,truck,c30,6848_con_dnn_c30_truck_10_n04467665_32032.JPEG
alexnet,6,449,NaN,truck,truck,c30,6849_con_dnn_c30_truck_10_n03417042_3025.JPEG
alexnet,6,450,NaN,clock,truck,c30,6850_con_dnn_c30_truck_10_n03796401_11628.JPEG
alexnet,6,451,NaN,clock,car,c30,6851_con_dnn_c30_car_10_n04285008_9602.JPEG
alexnet,6,452,NaN,car,car,c30,6852_con_dnn_c30_car_10_n03100240_5807.JPEG
alexnet,6,453,NaN,truck,car,c30,6853_con_dnn_c30_car_10_n04285008_5791.JPEG
alexnet,6,454,NaN,bottle,car,c30,6854_con_dnn_c30_car_10_n04285008_15271.JPEG
alexnet,6,455,NaN,car,car,c30,6855_con_dnn_c30_car_10_n02814533_73210.JPEG
alexnet,6,456,NaN,car,car,c30,6856_con_dnn_c30_car_10_n03100240_3461.JPEG
alexnet,6,457,NaN,car,car,c30,6857_con_dnn_c30_car_10_n02814533_28938.JPEG
alexnet,6,458,NaN,car,car,c30,6858_con_dnn_c30_car_10_n03100240_6330.JPEG
alexnet,6,459,NaN,airplane,car,c30,6859_con_dnn_c30_car_10_n03100240_6029.JPEG
alexnet,6,460,NaN,car,car,c30,6860_con_dnn_c30_car_10_n03100240_3120.JPEG
alexnet,6,461,NaN,bird,bird,c30,6861_con_dnn_c30_bird_10_n02051845_33217.JPEG
alexnet,6,462,NaN,bottle,bird,c30,6862_con_dnn_c30_bird_10_n01537544_10701.JPEG
alexnet,6,463,NaN,bear,bird,c30,6863_con_dnn_c30_bird_10_n01855032_6264.JPEG
alexnet,6,464,NaN,bird,bird,c30,6864_con_dnn_c30_bird_10_n02037110_8992.JPEG
alexnet,6,465,NaN,bird,bird,c30,6865_con_dnn_c30_bird_10_n01616318_12153.JPEG
alexnet,6,466,NaN,bird,bird,c30,6866_con_dnn_c30_bird_10_n02013706_2740.JPEG
alexnet,6,467,NaN,bird,bird,c30,6867_con_dnn_c30_bird_10_n01796340_3895.JPEG
alexnet,6,468,NaN,bird,bird,c30,6868_con_dnn_c30_bird_10_n01601694_11642.JPEG
alexnet,6,469,NaN,bird,bird,c30,6869_con_dnn_c30_bird_10_n02009912_8289.JPEG
alexnet,6,470,NaN,bird,bird,c30,6870_con_dnn_c30_bird_10_n01824575_1226.JPEG
alexnet,6,471,NaN,dog,dog,c30,6871_con_dnn_c30_dog_10_n02105855_12635.JPEG
alexnet,6,472,NaN,dog,dog,c30,6872_con_dnn_c30_dog_10_n02087046_17167.JPEG
alexnet,6,473,NaN,dog,dog,c30,6873_con_dnn_c30_dog_10_n02099601_5764.JPEG
alexnet,6,474,NaN,dog,dog,c30,6874_con_dnn_c30_dog_10_n02090721_1429.JPEG
alexnet,6,475,NaN,dog,dog,c30,6875_con_dnn_c30_dog_10_n02090721_2673.JPEG
alexnet,6,476,NaN,dog,dog,c30,6876_con_dnn_c30_dog_10_n02112350_8279.JPEG
alexnet,6,477,NaN,cat,dog,c30,6877_con_dnn_c30_dog_10_n02105855_5.JPEG
alexnet,6,478,NaN,chair,dog,c30,6878_con_dnn_c30_dog_10_n02090379_4.JPEG
alexnet,6,479,NaN,dog,dog,c30,6879_con_dnn_c30_dog_10_n02105162_10622.JPEG
alexnet,6,480,NaN,dog,dog,c30,6880_con_dnn_c30_dog_10_n02107312_2112.JPEG
alexnet,6,481,NaN,clock,knife,c15,6881_con_dnn_c15_knife_10_n03041632_22190.JPEG
alexnet,6,482,NaN,knife,knife,c15,6882_con_dnn_c15_knife_10_n03041632_100645.JPEG
alexnet,6,483,NaN,bottle,knife,c15,6883_con_dnn_c15_knife_10_n03041632_4269.JPEG
alexnet,6,484,NaN,bottle,knife,c15,6884_con_dnn_c15_knife_10_n03041632_27879.JPEG
alexnet,6,485,NaN,knife,knife,c15,6885_con_dnn_c15_knife_10_n03041632_9963.JPEG
alexnet,6,486,NaN,bottle,knife,c15,6886_con_dnn_c15_knife_10_n03041632_29038.JPEG
alexnet,6,487,NaN,bottle,knife,c15,6887_con_dnn_c15_knife_10_n03041632_84086.JPEG
alexnet,6,488,NaN,knife,knife,c15,6888_con_dnn_c15_knife_10_n03041632_9671.JPEG
alexnet,6,489,NaN,bottle,knife,c15,6889_con_dnn_c15_knife_10_n03041632_33255.JPEG
alexnet,6,490,NaN,chair,knife,c15,6890_con_dnn_c15_knife_10_n03041632_44019.JPEG
alexnet,6,491,NaN,bottle,keyboard,c15,6891_con_dnn_c15_keyboard_10_n03085013_18214.JPEG
alexnet,6,492,NaN,keyboard,keyboard,c15,6892_con_dnn_c15_keyboard_10_n03085013_29396.JPEG
alexnet,6,493,NaN,keyboard,keyboard,c15,6893_con_dnn_c15_keyboard_10_n04505470_2881.JPEG
alexnet,6,494,NaN,keyboard,keyboard,c15,6894_con_dnn_c15_keyboard_10_n04505470_2446.JPEG
alexnet,6,495,NaN,truck,keyboard,c15,6895_con_dnn_c15_keyboard_10_n03085013_2752.JPEG
alexnet,6,496,NaN,keyboard,keyboard,c15,6896_con_dnn_c15_keyboard_10_n03085013_26325.JPEG
alexnet,6,497,NaN,keyboard,keyboard,c15,6897_con_dnn_c15_keyboard_10_n03085013_24402.JPEG
alexnet,6,498,NaN,bottle,keyboard,c15,6898_con_dnn_c15_keyboard_10_n03085013_3812.JPEG
alexnet,6,499,NaN,keyboard,keyboard,c15,6899_con_dnn_c15_keyboard_10_n04505470_4479.JPEG
alexnet,6,500,NaN,keyboard,keyboard,c15,6900_con_dnn_c15_keyboard_10_n03085013_4780.JPEG
alexnet,6,501,NaN,elephant,elephant,c15,6901_con_dnn_c15_elephant_10_n02504013_8984.JPEG
alexnet,6,502,NaN,bear,elephant,c15,6902_con_dnn_c15_elephant_10_n02504013_7006.JPEG
alexnet,6,503,NaN,bear,elephant,c15,6903_con_dnn_c15_elephant_10_n02504013_6314.JPEG
alexnet,6,504,NaN,bear,elephant,c15,6904_con_dnn_c15_elephant_10_n02504013_2631.JPEG
alexnet,6,505,NaN,elephant,elephant,c15,6905_con_dnn_c15_elephant_10_n02504458_6880.JPEG
alexnet,6,506,NaN,bear,elephant,c15,6906_con_dnn_c15_elephant_10_n02504458_1056.JPEG
alexnet,6,507,NaN,bottle,elephant,c15,6907_con_dnn_c15_elephant_10_n02504013_6530.JPEG
alexnet,6,508,NaN,bear,elephant,c15,6908_con_dnn_c15_elephant_10_n02504013_6933.JPEG
alexnet,6,509,NaN,bear,elephant,c15,6909_con_dnn_c15_elephant_10_n02504458_817.JPEG
alexnet,6,510,NaN,elephant,elephant,c15,6910_con_dnn_c15_elephant_10_n02504458_2272.JPEG
alexnet,6,511,NaN,bottle,bicycle,c15,6911_con_dnn_c15_bicycle_10_n02835271_13328.JPEG
alexnet,6,512,NaN,dog,bicycle,c15,6912_con_dnn_c15_bicycle_10_n02835271_1874.JPEG
alexnet,6,513,NaN,chair,bicycle,c15,6913_con_dnn_c15_bicycle_10_n02835271_18453.JPEG
alexnet,6,514,NaN,boat,bicycle,c15,6914_con_dnn_c15_bicycle_10_n03792782_12561.JPEG
alexnet,6,515,NaN,bottle,bicycle,c15,6915_con_dnn_c15_bicycle_10_n02835271_1665.JPEG
alexnet,6,516,NaN,bird,bicycle,c15,6916_con_dnn_c15_bicycle_10_n02835271_10932.JPEG
alexnet,6,517,NaN,bottle,bicycle,c15,6917_con_dnn_c15_bicycle_10_n02835271_9661.JPEG
alexnet,6,518,NaN,clock,bicycle,c15,6918_con_dnn_c15_bicycle_10_n02835271_24851.JPEG
alexnet,6,519,NaN,bear,bicycle,c15,6919_con_dnn_c15_bicycle_10_n03792782_7269.JPEG
alexnet,6,520,NaN,bottle,bicycle,c15,6920_con_dnn_c15_bicycle_10_n03792782_3067.JPEG
alexnet,6,521,NaN,airplane,airplane,c15,6921_con_dnn_c15_airplane_10_n02690373_2611.JPEG
alexnet,6,522,NaN,airplane,airplane,c15,6922_con_dnn_c15_airplane_10_n02690373_5197.JPEG
alexnet,6,523,NaN,airplane,airplane,c15,6923_con_dnn_c15_airplane_10_n02690373_3334.JPEG
alexnet,6,524,NaN,airplane,airplane,c15,6924_con_dnn_c15_airplane_10_n02690373_863.JPEG
alexnet,6,525,NaN,airplane,airplane,c15,6925_con_dnn_c15_airplane_10_n02690373_7115.JPEG
alexnet,6,526,NaN,bird,airplane,c15,6926_con_dnn_c15_airplane_10_n02690373_5164.JPEG
alexnet,6,527,NaN,airplane,airplane,c15,6927_con_dnn_c15_airplane_10_n02690373_3698.JPEG
alexnet,6,528,NaN,dog,airplane,c15,6928_con_dnn_c15_airplane_10_n02690373_13384.JPEG
alexnet,6,529,NaN,clock,airplane,c15,6929_con_dnn_c15_airplane_10_n02690373_4608.JPEG
alexnet,6,530,NaN,airplane,airplane,c15,6930_con_dnn_c15_airplane_10_n02690373_6516.JPEG
alexnet,6,531,NaN,clock,clock,c15,6931_con_dnn_c15_clock_10_n02708093_3591.JPEG
alexnet,6,532,NaN,clock,clock,c15,6932_con_dnn_c15_clock_10_n04548280_8480.JPEG
alexnet,6,533,NaN,bottle,clock,c15,6933_con_dnn_c15_clock_10_n02708093_3213.JPEG
alexnet,6,534,NaN,clock,clock,c15,6934_con_dnn_c15_clock_10_n02708093_7015.JPEG
alexnet,6,535,NaN,bird,clock,c15,6935_con_dnn_c15_clock_10_n04548280_750.JPEG
alexnet,6,536,NaN,clock,clock,c15,6936_con_dnn_c15_clock_10_n02708093_5431.JPEG
alexnet,6,537,NaN,clock,clock,c15,6937_con_dnn_c15_clock_10_n04548280_10040.JPEG
alexnet,6,538,NaN,clock,clock,c15,6938_con_dnn_c15_clock_10_n03196217_8449.JPEG
alexnet,6,539,NaN,chair,clock,c15,6939_con_dnn_c15_clock_10_n04548280_2943.JPEG
alexnet,6,540,NaN,clock,clock,c15,6940_con_dnn_c15_clock_10_n04548280_2374.JPEG
alexnet,6,541,NaN,chair,oven,c15,6941_con_dnn_c15_oven_10_n04111531_10216.JPEG
alexnet,6,542,NaN,clock,oven,c15,6942_con_dnn_c15_oven_10_n04111531_1442.JPEG
alexnet,6,543,NaN,airplane,oven,c15,6943_con_dnn_c15_oven_10_n04111531_9490.JPEG
alexnet,6,544,NaN,bottle,oven,c15,6944_con_dnn_c15_oven_10_n04111531_1580.JPEG
alexnet,6,545,NaN,chair,oven,c15,6945_con_dnn_c15_oven_10_n04111531_46651.JPEG
alexnet,6,546,NaN,bottle,oven,c15,6946_con_dnn_c15_oven_10_n04111531_9113.JPEG
alexnet,6,547,NaN,oven,oven,c15,6947_con_dnn_c15_oven_10_n04111531_4322.JPEG
alexnet,6,548,NaN,bear,oven,c15,6948_con_dnn_c15_oven_10_n04111531_17576.JPEG
alexnet,6,549,NaN,bird,oven,c15,6949_con_dnn_c15_oven_10_n04111531_10220.JPEG
alexnet,6,550,NaN,chair,oven,c15,6950_con_dnn_c15_oven_10_n04111531_458.JPEG
alexnet,6,551,NaN,chair,chair,c15,6951_con_dnn_c15_chair_10_n04099969_930.JPEG
alexnet,6,552,NaN,chair,chair,c15,6952_con_dnn_c15_chair_10_n03376595_6973.JPEG
alexnet,6,553,NaN,bottle,chair,c15,6953_con_dnn_c15_chair_10_n02791124_2319.JPEG
alexnet,6,554,NaN,clock,chair,c15,6954_con_dnn_c15_chair_10_n03376595_6526.JPEG
alexnet,6,555,NaN,chair,chair,c15,6955_con_dnn_c15_chair_10_n03376595_7154.JPEG
alexnet,6,556,NaN,bottle,chair,c15,6956_con_dnn_c15_chair_10_n02791124_10834.JPEG
alexnet,6,557,NaN,chair,chair,c15,6957_con_dnn_c15_chair_10_n03376595_7065.JPEG
alexnet,6,558,NaN,chair,chair,c15,6958_con_dnn_c15_chair_10_n03376595_6552.JPEG
alexnet,6,559,NaN,bottle,chair,c15,6959_con_dnn_c15_chair_10_n04429376_7732.JPEG
alexnet,6,560,NaN,chair,chair,c15,6960_con_dnn_c15_chair_10_n04099969_4041.JPEG
alexnet,6,561,NaN,bear,bear,c15,6961_con_dnn_c15_bear_10_n02133161_7562.JPEG
alexnet,6,562,NaN,bear,bear,c15,6962_con_dnn_c15_bear_10_n02132136_23594.JPEG
alexnet,6,563,NaN,bear,bear,c15,6963_con_dnn_c15_bear_10_n02132136_771.JPEG
alexnet,6,564,NaN,bear,bear,c15,6964_con_dnn_c15_bear_10_n02134084_9104.JPEG
alexnet,6,565,NaN,bear,bear,c15,6965_con_dnn_c15_bear_10_n02134418_18982.JPEG
alexnet,6,566,NaN,bear,bear,c15,6966_con_dnn_c15_bear_10_n02134084_1162.JPEG
alexnet,6,567,NaN,dog,bear,c15,6967_con_dnn_c15_bear_10_n02132136_5715.JPEG
alexnet,6,568,NaN,cat,bear,c15,6968_con_dnn_c15_bear_10_n02134418_4575.JPEG
alexnet,6,569,NaN,cat,bear,c15,6969_con_dnn_c15_bear_10_n02134418_1311.JPEG
alexnet,6,570,NaN,bear,bear,c15,6970_con_dnn_c15_bear_10_n02133161_4804.JPEG
alexnet,6,571,NaN,boat,boat,c15,6971_con_dnn_c15_boat_10_n03662601_8709.JPEG
alexnet,6,572,NaN,bear,boat,c15,6972_con_dnn_c15_boat_10_n02951358_31517.JPEG
alexnet,6,573,NaN,bottle,boat,c15,6973_con_dnn_c15_boat_10_n03344393_11169.JPEG
alexnet,6,574,NaN,bear,boat,c15,6974_con_dnn_c15_boat_10_n04273569_8972.JPEG
alexnet,6,575,NaN,bottle,boat,c15,6975_con_dnn_c15_boat_10_n02951358_13229.JPEG
alexnet,6,576,NaN,boat,boat,c15,6976_con_dnn_c15_boat_10_n03344393_7044.JPEG
alexnet,6,577,NaN,boat,boat,c15,6977_con_dnn_c15_boat_10_n04273569_12057.JPEG
alexnet,6,578,NaN,bear,boat,c15,6978_con_dnn_c15_boat_10_n02951358_15844.JPEG
alexnet,6,579,NaN,boat,boat,c15,6979_con_dnn_c15_boat_10_n03344393_1821.JPEG
alexnet,6,580,NaN,boat,boat,c15,6980_con_dnn_c15_boat_10_n04273569_2034.JPEG
alexnet,6,581,NaN,cat,cat,c15,6981_con_dnn_c15_cat_10_n02123394_6795.JPEG
alexnet,6,582,NaN,bear,cat,c15,6982_con_dnn_c15_cat_10_n02123597_13794.JPEG
alexnet,6,583,NaN,bottle,cat,c15,6983_con_dnn_c15_cat_10_n02123159_2474.JPEG
alexnet,6,584,NaN,chair,cat,c15,6984_con_dnn_c15_cat_10_n02125311_1772.JPEG
alexnet,6,585,NaN,cat,cat,c15,6985_con_dnn_c15_cat_10_n02123045_6833.JPEG
alexnet,6,586,NaN,bird,cat,c15,6986_con_dnn_c15_cat_10_n02124075_9206.JPEG
alexnet,6,587,NaN,chair,cat,c15,6987_con_dnn_c15_cat_10_n02124075_7116.JPEG
alexnet,6,588,NaN,cat,cat,c15,6988_con_dnn_c15_cat_10_n02124075_8382.JPEG
alexnet,6,589,NaN,clock,cat,c15,6989_con_dnn_c15_cat_10_n02125311_29515.JPEG
alexnet,6,590,NaN,dog,cat,c15,6990_con_dnn_c15_cat_10_n02123045_5820.JPEG
alexnet,6,591,NaN,bottle,bottle,c15,6991_con_dnn_c15_bottle_10_n04560804_1061.JPEG
alexnet,6,592,NaN,bottle,bottle,c15,6992_con_dnn_c15_bottle_10_n03937543_7806.JPEG
alexnet,6,593,NaN,bottle,bottle,c15,6993_con_dnn_c15_bottle_10_n02823428_6655.JPEG
alexnet,6,594,NaN,bottle,bottle,c15,6994_con_dnn_c15_bottle_10_n04591713_3983.JPEG
alexnet,6,595,NaN,bottle,bottle,c15,6995_con_dnn_c15_bottle_10_n04560804_5387.JPEG
alexnet,6,596,NaN,bottle,bottle,c15,6996_con_dnn_c15_bottle_10_n03937543_7878.JPEG
alexnet,6,597,NaN,bottle,bottle,c15,6997_con_dnn_c15_bottle_10_n02823428_4303.JPEG
alexnet,6,598,NaN,bottle,bottle,c15,6998_con_dnn_c15_bottle_10_n04560804_16526.JPEG
alexnet,6,599,NaN,bottle,bottle,c15,6999_con_dnn_c15_bottle_10_n02823428_14021.JPEG
alexnet,6,600,NaN,bottle,bottle,c15,7000_con_dnn_c15_bottle_10_n04591713_1132.JPEG
alexnet,6,601,NaN,boat,truck,c15,7001_con_dnn_c15_truck_10_n04467665_53928.JPEG
alexnet,6,602,NaN,truck,truck,c15,7002_con_dnn_c15_truck_10_n03796401_12130.JPEG
alexnet,6,603,NaN,truck,truck,c15,7003_con_dnn_c15_truck_10_n03417042_8275.JPEG
alexnet,6,604,NaN,truck,truck,c15,7004_con_dnn_c15_truck_10_n03417042_634.JPEG
alexnet,6,605,NaN,truck,truck,c15,7005_con_dnn_c15_truck_10_n03417042_19955.JPEG
alexnet,6,606,NaN,truck,truck,c15,7006_con_dnn_c15_truck_10_n03417042_708.JPEG
alexnet,6,607,NaN,boat,truck,c15,7007_con_dnn_c15_truck_10_n04467665_67984.JPEG
alexnet,6,608,NaN,truck,truck,c15,7008_con_dnn_c15_truck_10_n04467665_42126.JPEG
alexnet,6,609,NaN,bear,truck,c15,7009_con_dnn_c15_truck_10_n03417042_5380.JPEG
alexnet,6,610,NaN,boat,truck,c15,7010_con_dnn_c15_truck_10_n03796401_11167.JPEG
alexnet,6,611,NaN,car,car,c15,7011_con_dnn_c15_car_10_n04285008_13.JPEG
alexnet,6,612,NaN,car,car,c15,7012_con_dnn_c15_car_10_n02814533_17956.JPEG
alexnet,6,613,NaN,bottle,car,c15,7013_con_dnn_c15_car_10_n04285008_12573.JPEG
alexnet,6,614,NaN,dog,car,c15,7014_con_dnn_c15_car_10_n03100240_6897.JPEG
alexnet,6,615,NaN,clock,car,c15,7015_con_dnn_c15_car_10_n03100240_6944.JPEG
alexnet,6,616,NaN,bottle,car,c15,7016_con_dnn_c15_car_10_n04285008_13865.JPEG
alexnet,6,617,NaN,bottle,car,c15,7017_con_dnn_c15_car_10_n03100240_9343.JPEG
alexnet,6,618,NaN,car,car,c15,7018_con_dnn_c15_car_10_n04285008_3514.JPEG
alexnet,6,619,NaN,car,car,c15,7019_con_dnn_c15_car_10_n03100240_17364.JPEG
alexnet,6,620,NaN,bottle,car,c15,7020_con_dnn_c15_car_10_n02814533_29925.JPEG
alexnet,6,621,NaN,bear,bird,c15,7021_con_dnn_c15_bird_10_n02018795_3102.JPEG
alexnet,6,622,NaN,bird,bird,c15,7022_con_dnn_c15_bird_10_n02025239_6876.JPEG
alexnet,6,623,NaN,bottle,bird,c15,7023_con_dnn_c15_bird_10_n01829413_7168.JPEG
alexnet,6,624,NaN,bird,bird,c15,7024_con_dnn_c15_bird_10_n01797886_6404.JPEG
alexnet,6,625,NaN,bird,bird,c15,7025_con_dnn_c15_bird_10_n02037110_1249.JPEG
alexnet,6,626,NaN,bottle,bird,c15,7026_con_dnn_c15_bird_10_n01818515_35821.JPEG
alexnet,6,627,NaN,airplane,bird,c15,7027_con_dnn_c15_bird_10_n02009912_35824.JPEG
alexnet,6,628,NaN,bird,bird,c15,7028_con_dnn_c15_bird_10_n01843065_3596.JPEG
alexnet,6,629,NaN,bird,bird,c15,7029_con_dnn_c15_bird_10_n01843383_3576.JPEG
alexnet,6,630,NaN,dog,bird,c15,7030_con_dnn_c15_bird_10_n01817953_10361.JPEG
alexnet,6,631,NaN,bottle,dog,c15,7031_con_dnn_c15_dog_10_n02110958_6532.JPEG
alexnet,6,632,NaN,dog,dog,c15,7032_con_dnn_c15_dog_10_n02086079_14556.JPEG
alexnet,6,633,NaN,bear,dog,c15,7033_con_dnn_c15_dog_10_n02095314_4847.JPEG
alexnet,6,634,NaN,dog,dog,c15,7034_con_dnn_c15_dog_10_n02113023_4789.JPEG
alexnet,6,635,NaN,dog,dog,c15,7035_con_dnn_c15_dog_10_n02106662_3881.JPEG
alexnet,6,636,NaN,dog,dog,c15,7036_con_dnn_c15_dog_10_n02101006_3379.JPEG
alexnet,6,637,NaN,dog,dog,c15,7037_con_dnn_c15_dog_10_n02106382_6873.JPEG
alexnet,6,638,NaN,dog,dog,c15,7038_con_dnn_c15_dog_10_n02113799_19246.JPEG
alexnet,6,639,NaN,bear,dog,c15,7039_con_dnn_c15_dog_10_n02101006_5925.JPEG
alexnet,6,640,NaN,dog,dog,c15,7040_con_dnn_c15_dog_10_n02102040_1961.JPEG
alexnet,6,641,NaN,airplane,knife,c10,7041_con_dnn_c10_knife_10_n03041632_2644.JPEG
alexnet,6,642,NaN,dog,knife,c10,7042_con_dnn_c10_knife_10_n03041632_42185.JPEG
alexnet,6,643,NaN,airplane,knife,c10,7043_con_dnn_c10_knife_10_n03041632_38610.JPEG
alexnet,6,644,NaN,bottle,knife,c10,7044_con_dnn_c10_knife_10_n03041632_6557.JPEG
alexnet,6,645,NaN,bottle,knife,c10,7045_con_dnn_c10_knife_10_n03041632_30286.JPEG
alexnet,6,646,NaN,bird,knife,c10,7046_con_dnn_c10_knife_10_n03041632_6446.JPEG
alexnet,6,647,NaN,bird,knife,c10,7047_con_dnn_c10_knife_10_n03041632_23968.JPEG
alexnet,6,648,NaN,bottle,knife,c10,7048_con_dnn_c10_knife_10_n03041632_13656.JPEG
alexnet,6,649,NaN,knife,knife,c10,7049_con_dnn_c10_knife_10_n03041632_29125.JPEG
alexnet,6,650,NaN,dog,knife,c10,7050_con_dnn_c10_knife_10_n03041632_25498.JPEG
alexnet,6,651,NaN,keyboard,keyboard,c10,7051_con_dnn_c10_keyboard_10_n03085013_21867.JPEG
alexnet,6,652,NaN,keyboard,keyboard,c10,7052_con_dnn_c10_keyboard_10_n03085013_3632.JPEG
alexnet,6,653,NaN,keyboard,keyboard,c10,7053_con_dnn_c10_keyboard_10_n03085013_20691.JPEG
alexnet,6,654,NaN,bottle,keyboard,c10,7054_con_dnn_c10_keyboard_10_n04505470_1994.JPEG
alexnet,6,655,NaN,bottle,keyboard,c10,7055_con_dnn_c10_keyboard_10_n04505470_2358.JPEG
alexnet,6,656,NaN,keyboard,keyboard,c10,7056_con_dnn_c10_keyboard_10_n03085013_20590.JPEG
alexnet,6,657,NaN,bottle,keyboard,c10,7057_con_dnn_c10_keyboard_10_n04505470_4918.JPEG
alexnet,6,658,NaN,bottle,keyboard,c10,7058_con_dnn_c10_keyboard_10_n04505470_4854.JPEG
alexnet,6,659,NaN,keyboard,keyboard,c10,7059_con_dnn_c10_keyboard_10_n04505470_5902.JPEG
alexnet,6,660,NaN,keyboard,keyboard,c10,7060_con_dnn_c10_keyboard_10_n03085013_19724.JPEG
alexnet,6,661,NaN,elephant,elephant,c10,7061_con_dnn_c10_elephant_10_n02504013_7016.JPEG
alexnet,6,662,NaN,bear,elephant,c10,7062_con_dnn_c10_elephant_10_n02504458_2595.JPEG
alexnet,6,663,NaN,elephant,elephant,c10,7063_con_dnn_c10_elephant_10_n02504458_5562.JPEG
alexnet,6,664,NaN,boat,elephant,c10,7064_con_dnn_c10_elephant_10_n02504458_975.JPEG
alexnet,6,665,NaN,bear,elephant,c10,7065_con_dnn_c10_elephant_10_n02504013_14918.JPEG
alexnet,6,666,NaN,bear,elephant,c10,7066_con_dnn_c10_elephant_10_n02504013_3872.JPEG
alexnet,6,667,NaN,bottle,elephant,c10,7067_con_dnn_c10_elephant_10_n02504013_21730.JPEG
alexnet,6,668,NaN,bottle,elephant,c10,7068_con_dnn_c10_elephant_10_n02504013_2085.JPEG
alexnet,6,669,NaN,dog,elephant,c10,7069_con_dnn_c10_elephant_10_n02504013_522.JPEG
alexnet,6,670,NaN,bottle,elephant,c10,7070_con_dnn_c10_elephant_10_n02504458_7565.JPEG
alexnet,6,671,NaN,bird,bicycle,c10,7071_con_dnn_c10_bicycle_10_n02835271_7958.JPEG
alexnet,6,672,NaN,dog,bicycle,c10,7072_con_dnn_c10_bicycle_10_n03792782_2960.JPEG
alexnet,6,673,NaN,bottle,bicycle,c10,7073_con_dnn_c10_bicycle_10_n03792782_11911.JPEG
alexnet,6,674,NaN,bottle,bicycle,c10,7074_con_dnn_c10_bicycle_10_n02835271_5742.JPEG
alexnet,6,675,NaN,bird,bicycle,c10,7075_con_dnn_c10_bicycle_10_n02835271_10778.JPEG
alexnet,6,676,NaN,elephant,bicycle,c10,7076_con_dnn_c10_bicycle_10_n02835271_30483.JPEG
alexnet,6,677,NaN,bear,bicycle,c10,7077_con_dnn_c10_bicycle_10_n02835271_13094.JPEG
alexnet,6,678,NaN,bottle,bicycle,c10,7078_con_dnn_c10_bicycle_10_n03792782_63201.JPEG
alexnet,6,679,NaN,bottle,bicycle,c10,7079_con_dnn_c10_bicycle_10_n02835271_8757.JPEG
alexnet,6,680,NaN,chair,bicycle,c10,7080_con_dnn_c10_bicycle_10_n02835271_8672.JPEG
alexnet,6,681,NaN,airplane,airplane,c10,7081_con_dnn_c10_airplane_10_n02690373_7944.JPEG
alexnet,6,682,NaN,airplane,airplane,c10,7082_con_dnn_c10_airplane_10_n02690373_6492.JPEG
alexnet,6,683,NaN,airplane,airplane,c10,7083_con_dnn_c10_airplane_10_n02690373_2042.JPEG
alexnet,6,684,NaN,airplane,airplane,c10,7084_con_dnn_c10_airplane_10_n02690373_9802.JPEG
alexnet,6,685,NaN,airplane,airplane,c10,7085_con_dnn_c10_airplane_10_n02690373_5082.JPEG
alexnet,6,686,NaN,boat,airplane,c10,7086_con_dnn_c10_airplane_10_n02690373_7036.JPEG
alexnet,6,687,NaN,boat,airplane,c10,7087_con_dnn_c10_airplane_10_n02690373_7718.JPEG
alexnet,6,688,NaN,airplane,airplane,c10,7088_con_dnn_c10_airplane_10_n02690373_1670.JPEG
alexnet,6,689,NaN,truck,airplane,c10,7089_con_dnn_c10_airplane_10_n02690373_10397.JPEG
alexnet,6,690,NaN,airplane,airplane,c10,7090_con_dnn_c10_airplane_10_n02690373_2580.JPEG
alexnet,6,691,NaN,bottle,clock,c10,7091_con_dnn_c10_clock_10_n02708093_5346.JPEG
alexnet,6,692,NaN,clock,clock,c10,7092_con_dnn_c10_clock_10_n03196217_2271.JPEG
alexnet,6,693,NaN,clock,clock,c10,7093_con_dnn_c10_clock_10_n03196217_2224.JPEG
alexnet,6,694,NaN,clock,clock,c10,7094_con_dnn_c10_clock_10_n02708093_6731.JPEG
alexnet,6,695,NaN,clock,clock,c10,7095_con_dnn_c10_clock_10_n04548280_6869.JPEG
alexnet,6,696,NaN,clock,clock,c10,7096_con_dnn_c10_clock_10_n02708093_3173.JPEG
alexnet,6,697,NaN,clock,clock,c10,7097_con_dnn_c10_clock_10_n03196217_5845.JPEG
alexnet,6,698,NaN,clock,clock,c10,7098_con_dnn_c10_clock_10_n04548280_4907.JPEG
alexnet,6,699,NaN,clock,clock,c10,7099_con_dnn_c10_clock_10_n02708093_6175.JPEG
alexnet,6,700,NaN,clock,clock,c10,7100_con_dnn_c10_clock_10_n03196217_1505.JPEG
alexnet,6,701,NaN,clock,oven,c10,7101_con_dnn_c10_oven_10_n04111531_22020.JPEG
alexnet,6,702,NaN,chair,oven,c10,7102_con_dnn_c10_oven_10_n04111531_8988.JPEG
alexnet,6,703,NaN,oven,oven,c10,7103_con_dnn_c10_oven_10_n04111531_10622.JPEG
alexnet,6,704,NaN,bottle,oven,c10,7104_con_dnn_c10_oven_10_n04111531_24065.JPEG
alexnet,6,705,NaN,clock,oven,c10,7105_con_dnn_c10_oven_10_n04111531_3191.JPEG
alexnet,6,706,NaN,bird,oven,c10,7106_con_dnn_c10_oven_10_n04111531_16198.JPEG
alexnet,6,707,NaN,bird,oven,c10,7107_con_dnn_c10_oven_10_n04111531_8077.JPEG
alexnet,6,708,NaN,bottle,oven,c10,7108_con_dnn_c10_oven_10_n04111531_8330.JPEG
alexnet,6,709,NaN,bottle,oven,c10,7109_con_dnn_c10_oven_10_n04111531_20875.JPEG
alexnet,6,710,NaN,bird,oven,c10,7110_con_dnn_c10_oven_10_n04111531_13128.JPEG
alexnet,6,711,NaN,bottle,chair,c10,7111_con_dnn_c10_chair_10_n03376595_3968.JPEG
alexnet,6,712,NaN,chair,chair,c10,7112_con_dnn_c10_chair_10_n02791124_4369.JPEG
alexnet,6,713,NaN,chair,chair,c10,7113_con_dnn_c10_chair_10_n04429376_33792.JPEG
alexnet,6,714,NaN,bottle,chair,c10,7114_con_dnn_c10_chair_10_n04429376_46146.JPEG
alexnet,6,715,NaN,chair,chair,c10,7115_con_dnn_c10_chair_10_n04099969_17424.JPEG
alexnet,6,716,NaN,chair,chair,c10,7116_con_dnn_c10_chair_10_n03376595_9591.JPEG
alexnet,6,717,NaN,chair,chair,c10,7117_con_dnn_c10_chair_10_n02791124_8056.JPEG
alexnet,6,718,NaN,dog,chair,c10,7118_con_dnn_c10_chair_10_n03376595_3120.JPEG
alexnet,6,719,NaN,truck,chair,c10,7119_con_dnn_c10_chair_10_n04429376_24375.JPEG
alexnet,6,720,NaN,chair,chair,c10,7120_con_dnn_c10_chair_10_n04099969_2055.JPEG
alexnet,6,721,NaN,bear,bear,c10,7121_con_dnn_c10_bear_10_n02134084_6910.JPEG
alexnet,6,722,NaN,bear,bear,c10,7122_con_dnn_c10_bear_10_n02134418_6083.JPEG
alexnet,6,723,NaN,dog,bear,c10,7123_con_dnn_c10_bear_10_n02132136_2737.JPEG
alexnet,6,724,NaN,dog,bear,c10,7124_con_dnn_c10_bear_10_n02133161_2624.JPEG
alexnet,6,725,NaN,bear,bear,c10,7125_con_dnn_c10_bear_10_n02134084_4557.JPEG
alexnet,6,726,NaN,boat,bear,c10,7126_con_dnn_c10_bear_10_n02133161_12152.JPEG
alexnet,6,727,NaN,bird,bear,c10,7127_con_dnn_c10_bear_10_n02133161_2106.JPEG
alexnet,6,728,NaN,bear,bear,c10,7128_con_dnn_c10_bear_10_n02133161_1092.JPEG
alexnet,6,729,NaN,bear,bear,c10,7129_con_dnn_c10_bear_10_n02134084_11580.JPEG
alexnet,6,730,NaN,bird,bear,c10,7130_con_dnn_c10_bear_10_n02133161_13184.JPEG
alexnet,6,731,NaN,boat,boat,c10,7131_con_dnn_c10_boat_10_n03662601_34526.JPEG
alexnet,6,732,NaN,airplane,boat,c10,7132_con_dnn_c10_boat_10_n04273569_418.JPEG
alexnet,6,733,NaN,boat,boat,c10,7133_con_dnn_c10_boat_10_n03662601_3388.JPEG
alexnet,6,734,NaN,clock,boat,c10,7134_con_dnn_c10_boat_10_n03662601_6127.JPEG
alexnet,6,735,NaN,boat,boat,c10,7135_con_dnn_c10_boat_10_n03344393_6018.JPEG
alexnet,6,736,NaN,boat,boat,c10,7136_con_dnn_c10_boat_10_n04612504_5852.JPEG
alexnet,6,737,NaN,boat,boat,c10,7137_con_dnn_c10_boat_10_n03344393_4485.JPEG
alexnet,6,738,NaN,boat,boat,c10,7138_con_dnn_c10_boat_10_n04273569_3668.JPEG
alexnet,6,739,NaN,boat,boat,c10,7139_con_dnn_c10_boat_10_n03344393_3239.JPEG
alexnet,6,740,NaN,boat,boat,c10,7140_con_dnn_c10_boat_10_n02951358_8669.JPEG
alexnet,6,741,NaN,cat,cat,c10,7141_con_dnn_c10_cat_10_n02123394_1806.JPEG
alexnet,6,742,NaN,boat,cat,c10,7142_con_dnn_c10_cat_10_n02123394_3252.JPEG
alexnet,6,743,NaN,cat,cat,c10,7143_con_dnn_c10_cat_10_n02124075_13978.JPEG
alexnet,6,744,NaN,bird,cat,c10,7144_con_dnn_c10_cat_10_n02123159_6102.JPEG
alexnet,6,745,NaN,bottle,cat,c10,7145_con_dnn_c10_cat_10_n02123394_5350.JPEG
alexnet,6,746,NaN,dog,cat,c10,7146_con_dnn_c10_cat_10_n02123045_3317.JPEG
alexnet,6,747,NaN,bottle,cat,c10,7147_con_dnn_c10_cat_10_n02124075_8028.JPEG
alexnet,6,748,NaN,dog,cat,c10,7148_con_dnn_c10_cat_10_n02124075_14197.JPEG
alexnet,6,749,NaN,cat,cat,c10,7149_con_dnn_c10_cat_10_n02123394_1299.JPEG
alexnet,6,750,NaN,dog,cat,c10,7150_con_dnn_c10_cat_10_n02123045_8948.JPEG
alexnet,6,751,NaN,truck,bottle,c10,7151_con_dnn_c10_bottle_10_n04591713_6617.JPEG
alexnet,6,752,NaN,bottle,bottle,c10,7152_con_dnn_c10_bottle_10_n04560804_2663.JPEG
alexnet,6,753,NaN,bottle,bottle,c10,7153_con_dnn_c10_bottle_10_n04557648_10744.JPEG
alexnet,6,754,NaN,bird,bottle,c10,7154_con_dnn_c10_bottle_10_n04557648_7669.JPEG
alexnet,6,755,NaN,bottle,bottle,c10,7155_con_dnn_c10_bottle_10_n04579145_3143.JPEG
alexnet,6,756,NaN,boat,bottle,c10,7156_con_dnn_c10_bottle_10_n04557648_10257.JPEG
alexnet,6,757,NaN,airplane,bottle,c10,7157_con_dnn_c10_bottle_10_n04560804_31660.JPEG
alexnet,6,758,NaN,bottle,bottle,c10,7158_con_dnn_c10_bottle_10_n04591713_1991.JPEG
alexnet,6,759,NaN,bottle,bottle,c10,7159_con_dnn_c10_bottle_10_n03983396_3741.JPEG
alexnet,6,760,NaN,bottle,bottle,c10,7160_con_dnn_c10_bottle_10_n04560804_1255.JPEG
alexnet,6,761,NaN,truck,truck,c10,7161_con_dnn_c10_truck_10_n03417042_11511.JPEG
alexnet,6,762,NaN,truck,truck,c10,7162_con_dnn_c10_truck_10_n03417042_2535.JPEG
alexnet,6,763,NaN,truck,truck,c10,7163_con_dnn_c10_truck_10_n04467665_19138.JPEG
alexnet,6,764,NaN,truck,truck,c10,7164_con_dnn_c10_truck_10_n04467665_13331.JPEG
alexnet,6,765,NaN,truck,truck,c10,7165_con_dnn_c10_truck_10_n04467665_40307.JPEG
alexnet,6,766,NaN,bottle,truck,c10,7166_con_dnn_c10_truck_10_n03417042_10259.JPEG
alexnet,6,767,NaN,truck,truck,c10,7167_con_dnn_c10_truck_10_n03417042_10567.JPEG
alexnet,6,768,NaN,truck,truck,c10,7168_con_dnn_c10_truck_10_n04467665_46263.JPEG
alexnet,6,769,NaN,truck,truck,c10,7169_con_dnn_c10_truck_10_n03417042_17099.JPEG
alexnet,6,770,NaN,truck,truck,c10,7170_con_dnn_c10_truck_10_n03417042_22683.JPEG
alexnet,6,771,NaN,airplane,car,c10,7171_con_dnn_c10_car_10_n04285008_7947.JPEG
alexnet,6,772,NaN,car,car,c10,7172_con_dnn_c10_car_10_n04285008_762.JPEG
alexnet,6,773,NaN,car,car,c10,7173_con_dnn_c10_car_10_n02814533_2713.JPEG
alexnet,6,774,NaN,bear,car,c10,7174_con_dnn_c10_car_10_n04285008_1701.JPEG
alexnet,6,775,NaN,bottle,car,c10,7175_con_dnn_c10_car_10_n04285008_11171.JPEG
alexnet,6,776,NaN,bear,car,c10,7176_con_dnn_c10_car_10_n02814533_3561.JPEG
alexnet,6,777,NaN,bottle,car,c10,7177_con_dnn_c10_car_10_n02814533_27344.JPEG
alexnet,6,778,NaN,bottle,car,c10,7178_con_dnn_c10_car_10_n02814533_11905.JPEG
alexnet,6,779,NaN,bottle,car,c10,7179_con_dnn_c10_car_10_n02814533_7904.JPEG
alexnet,6,780,NaN,clock,car,c10,7180_con_dnn_c10_car_10_n04285008_7332.JPEG
alexnet,6,781,NaN,bottle,bird,c10,7181_con_dnn_c10_bird_10_n02033041_16270.JPEG
alexnet,6,782,NaN,boat,bird,c10,7182_con_dnn_c10_bird_10_n02002556_1458.JPEG
alexnet,6,783,NaN,boat,bird,c10,7183_con_dnn_c10_bird_10_n02051845_2669.JPEG
alexnet,6,784,NaN,bird,bird,c10,7184_con_dnn_c10_bird_10_n02002724_3210.JPEG
alexnet,6,785,NaN,bird,bird,c10,7185_con_dnn_c10_bird_10_n01601694_20238.JPEG
alexnet,6,786,NaN,bottle,bird,c10,7186_con_dnn_c10_bird_10_n01622779_1025.JPEG
alexnet,6,787,NaN,boat,bird,c10,7187_con_dnn_c10_bird_10_n01818515_8977.JPEG
alexnet,6,788,NaN,bear,bird,c10,7188_con_dnn_c10_bird_10_n01560419_9339.JPEG
alexnet,6,789,NaN,bird,bird,c10,7189_con_dnn_c10_bird_10_n01531178_5776.JPEG
alexnet,6,790,NaN,bird,bird,c10,7190_con_dnn_c10_bird_10_n02037110_5556.JPEG
alexnet,6,791,NaN,dog,dog,c10,7191_con_dnn_c10_dog_10_n02098286_1927.JPEG
alexnet,6,792,NaN,dog,dog,c10,7192_con_dnn_c10_dog_10_n02095570_10667.JPEG
alexnet,6,793,NaN,dog,dog,c10,7193_con_dnn_c10_dog_10_n02108915_2082.JPEG
alexnet,6,794,NaN,dog,dog,c10,7194_con_dnn_c10_dog_10_n02091635_7967.JPEG
alexnet,6,795,NaN,dog,dog,c10,7195_con_dnn_c10_dog_10_n02111277_120.JPEG
alexnet,6,796,NaN,bear,dog,c10,7196_con_dnn_c10_dog_10_n02105056_11051.JPEG
alexnet,6,797,NaN,bottle,dog,c10,7197_con_dnn_c10_dog_10_n02106382_2063.JPEG
alexnet,6,798,NaN,dog,dog,c10,7198_con_dnn_c10_dog_10_n02108000_5435.JPEG
alexnet,6,799,NaN,bird,dog,c10,7199_con_dnn_c10_dog_10_n02108000_5566.JPEG
alexnet,6,800,NaN,bottle,dog,c10,7200_con_dnn_c10_dog_10_n02092339_1184.JPEG
alexnet,6,801,NaN,knife,knife,c05,7201_con_dnn_c05_knife_10_n03041632_24100.JPEG
alexnet,6,802,NaN,bear,knife,c05,7202_con_dnn_c05_knife_10_n03041632_99799.JPEG
alexnet,6,803,NaN,boat,knife,c05,7203_con_dnn_c05_knife_10_n03041632_20832.JPEG
alexnet,6,804,NaN,bear,knife,c05,7204_con_dnn_c05_knife_10_n03041632_46720.JPEG
alexnet,6,805,NaN,airplane,knife,c05,7205_con_dnn_c05_knife_10_n03041632_7495.JPEG
alexnet,6,806,NaN,boat,knife,c05,7206_con_dnn_c05_knife_10_n03041632_31909.JPEG
alexnet,6,807,NaN,boat,knife,c05,7207_con_dnn_c05_knife_10_n03041632_8468.JPEG
alexnet,6,808,NaN,airplane,knife,c05,7208_con_dnn_c05_knife_10_n03041632_39836.JPEG
alexnet,6,809,NaN,boat,knife,c05,7209_con_dnn_c05_knife_10_n03041632_99875.JPEG
alexnet,6,810,NaN,bear,knife,c05,7210_con_dnn_c05_knife_10_n03041632_14293.JPEG
alexnet,6,811,NaN,bear,keyboard,c05,7211_con_dnn_c05_keyboard_10_n03085013_5950.JPEG
alexnet,6,812,NaN,clock,keyboard,c05,7212_con_dnn_c05_keyboard_10_n03085013_20699.JPEG
alexnet,6,813,NaN,bear,keyboard,c05,7213_con_dnn_c05_keyboard_10_n03085013_21241.JPEG
alexnet,6,814,NaN,bird,keyboard,c05,7214_con_dnn_c05_keyboard_10_n03085013_3178.JPEG
alexnet,6,815,NaN,bird,keyboard,c05,7215_con_dnn_c05_keyboard_10_n04505470_1833.JPEG
alexnet,6,816,NaN,bottle,keyboard,c05,7216_con_dnn_c05_keyboard_10_n04505470_5137.JPEG
alexnet,6,817,NaN,bottle,keyboard,c05,7217_con_dnn_c05_keyboard_10_n04505470_186.JPEG
alexnet,6,818,NaN,airplane,keyboard,c05,7218_con_dnn_c05_keyboard_10_n03085013_22837.JPEG
alexnet,6,819,NaN,bear,keyboard,c05,7219_con_dnn_c05_keyboard_10_n03085013_11469.JPEG
alexnet,6,820,NaN,bear,keyboard,c05,7220_con_dnn_c05_keyboard_10_n03085013_20983.JPEG
alexnet,6,821,NaN,bear,elephant,c05,7221_con_dnn_c05_elephant_10_n02504013_17337.JPEG
alexnet,6,822,NaN,bear,elephant,c05,7222_con_dnn_c05_elephant_10_n02504458_5826.JPEG
alexnet,6,823,NaN,bear,elephant,c05,7223_con_dnn_c05_elephant_10_n02504013_22131.JPEG
alexnet,6,824,NaN,bear,elephant,c05,7224_con_dnn_c05_elephant_10_n02504013_2209.JPEG
alexnet,6,825,NaN,bird,elephant,c05,7225_con_dnn_c05_elephant_10_n02504013_8563.JPEG
alexnet,6,826,NaN,bear,elephant,c05,7226_con_dnn_c05_elephant_10_n02504458_2341.JPEG
alexnet,6,827,NaN,bird,elephant,c05,7227_con_dnn_c05_elephant_10_n02504013_15852.JPEG
alexnet,6,828,NaN,bear,elephant,c05,7228_con_dnn_c05_elephant_10_n02504013_15063.JPEG
alexnet,6,829,NaN,bear,elephant,c05,7229_con_dnn_c05_elephant_10_n02504013_10898.JPEG
alexnet,6,830,NaN,bird,elephant,c05,7230_con_dnn_c05_elephant_10_n02504013_1692.JPEG
alexnet,6,831,NaN,bear,bicycle,c05,7231_con_dnn_c05_bicycle_10_n02835271_7351.JPEG
alexnet,6,832,NaN,bear,bicycle,c05,7232_con_dnn_c05_bicycle_10_n03792782_20028.JPEG
alexnet,6,833,NaN,bear,bicycle,c05,7233_con_dnn_c05_bicycle_10_n03792782_11237.JPEG
alexnet,6,834,NaN,bear,bicycle,c05,7234_con_dnn_c05_bicycle_10_n03792782_43609.JPEG
alexnet,6,835,NaN,bear,bicycle,c05,7235_con_dnn_c05_bicycle_10_n03792782_6839.JPEG
alexnet,6,836,NaN,boat,bicycle,c05,7236_con_dnn_c05_bicycle_10_n03792782_6852.JPEG
alexnet,6,837,NaN,bear,bicycle,c05,7237_con_dnn_c05_bicycle_10_n02835271_8689.JPEG
alexnet,6,838,NaN,boat,bicycle,c05,7238_con_dnn_c05_bicycle_10_n03792782_34545.JPEG
alexnet,6,839,NaN,bear,bicycle,c05,7239_con_dnn_c05_bicycle_10_n03792782_7678.JPEG
alexnet,6,840,NaN,dog,bicycle,c05,7240_con_dnn_c05_bicycle_10_n02835271_9306.JPEG
alexnet,6,841,NaN,airplane,airplane,c05,7241_con_dnn_c05_airplane_10_n02690373_4298.JPEG
alexnet,6,842,NaN,airplane,airplane,c05,7242_con_dnn_c05_airplane_10_n02690373_2514.JPEG
alexnet,6,843,NaN,bear,airplane,c05,7243_con_dnn_c05_airplane_10_n02690373_14117.JPEG
alexnet,6,844,NaN,airplane,airplane,c05,7244_con_dnn_c05_airplane_10_n02690373_2656.JPEG
alexnet,6,845,NaN,airplane,airplane,c05,7245_con_dnn_c05_airplane_10_n02690373_12436.JPEG
alexnet,6,846,NaN,airplane,airplane,c05,7246_con_dnn_c05_airplane_10_n02690373_9247.JPEG
alexnet,6,847,NaN,airplane,airplane,c05,7247_con_dnn_c05_airplane_10_n02690373_10354.JPEG
alexnet,6,848,NaN,bear,airplane,c05,7248_con_dnn_c05_airplane_10_n02690373_3641.JPEG
alexnet,6,849,NaN,airplane,airplane,c05,7249_con_dnn_c05_airplane_10_n02690373_60.JPEG
alexnet,6,850,NaN,airplane,airplane,c05,7250_con_dnn_c05_airplane_10_n02690373_4175.JPEG
alexnet,6,851,NaN,bottle,clock,c05,7251_con_dnn_c05_clock_10_n04548280_3093.JPEG
alexnet,6,852,NaN,bottle,clock,c05,7252_con_dnn_c05_clock_10_n02708093_3823.JPEG
alexnet,6,853,NaN,clock,clock,c05,7253_con_dnn_c05_clock_10_n02708093_8386.JPEG
alexnet,6,854,NaN,bear,clock,c05,7254_con_dnn_c05_clock_10_n03196217_8020.JPEG
alexnet,6,855,NaN,bottle,clock,c05,7255_con_dnn_c05_clock_10_n02708093_6799.JPEG
alexnet,6,856,NaN,bottle,clock,c05,7256_con_dnn_c05_clock_10_n03196217_5559.JPEG
alexnet,6,857,NaN,clock,clock,c05,7257_con_dnn_c05_clock_10_n02708093_5034.JPEG
alexnet,6,858,NaN,bottle,clock,c05,7258_con_dnn_c05_clock_10_n04548280_5482.JPEG
alexnet,6,859,NaN,airplane,clock,c05,7259_con_dnn_c05_clock_10_n03196217_3862.JPEG
alexnet,6,860,NaN,airplane,clock,c05,7260_con_dnn_c05_clock_10_n03196217_10790.JPEG
alexnet,6,861,NaN,bear,oven,c05,7261_con_dnn_c05_oven_10_n04111531_4421.JPEG
alexnet,6,862,NaN,bird,oven,c05,7262_con_dnn_c05_oven_10_n04111531_5533.JPEG
alexnet,6,863,NaN,airplane,oven,c05,7263_con_dnn_c05_oven_10_n04111531_7862.JPEG
alexnet,6,864,NaN,bear,oven,c05,7264_con_dnn_c05_oven_10_n04111531_13590.JPEG
alexnet,6,865,NaN,bottle,oven,c05,7265_con_dnn_c05_oven_10_n04111531_22886.JPEG
alexnet,6,866,NaN,bottle,oven,c05,7266_con_dnn_c05_oven_10_n04111531_2923.JPEG
alexnet,6,867,NaN,bottle,oven,c05,7267_con_dnn_c05_oven_10_n04111531_73.JPEG
alexnet,6,868,NaN,bear,oven,c05,7268_con_dnn_c05_oven_10_n04111531_3973.JPEG
alexnet,6,869,NaN,dog,oven,c05,7269_con_dnn_c05_oven_10_n04111531_12129.JPEG
alexnet,6,870,NaN,bear,oven,c05,7270_con_dnn_c05_oven_10_n04111531_11935.JPEG
alexnet,6,871,NaN,chair,chair,c05,7271_con_dnn_c05_chair_10_n04099969_101.JPEG
alexnet,6,872,NaN,boat,chair,c05,7272_con_dnn_c05_chair_10_n04099969_3682.JPEG
alexnet,6,873,NaN,boat,chair,c05,7273_con_dnn_c05_chair_10_n04099969_15553.JPEG
alexnet,6,874,NaN,airplane,chair,c05,7274_con_dnn_c05_chair_10_n02791124_2836.JPEG
alexnet,6,875,NaN,bear,chair,c05,7275_con_dnn_c05_chair_10_n03376595_535.JPEG
alexnet,6,876,NaN,chair,chair,c05,7276_con_dnn_c05_chair_10_n04099969_2713.JPEG
alexnet,6,877,NaN,boat,chair,c05,7277_con_dnn_c05_chair_10_n04429376_13751.JPEG
alexnet,6,878,NaN,bottle,chair,c05,7278_con_dnn_c05_chair_10_n02791124_3883.JPEG
alexnet,6,879,NaN,clock,chair,c05,7279_con_dnn_c05_chair_10_n03376595_524.JPEG
alexnet,6,880,NaN,airplane,chair,c05,7280_con_dnn_c05_chair_10_n02791124_4437.JPEG
alexnet,6,881,NaN,bear,bear,c05,7281_con_dnn_c05_bear_10_n02134418_2634.JPEG
alexnet,6,882,NaN,bear,bear,c05,7282_con_dnn_c05_bear_10_n02133161_2069.JPEG
alexnet,6,883,NaN,bear,bear,c05,7283_con_dnn_c05_bear_10_n02134418_6174.JPEG
alexnet,6,884,NaN,airplane,bear,c05,7284_con_dnn_c05_bear_10_n02134084_23382.JPEG
alexnet,6,885,NaN,bear,bear,c05,7285_con_dnn_c05_bear_10_n02133161_11825.JPEG
alexnet,6,886,NaN,bear,bear,c05,7286_con_dnn_c05_bear_10_n02134084_9774.JPEG
alexnet,6,887,NaN,bear,bear,c05,7287_con_dnn_c05_bear_10_n02134418_5115.JPEG
alexnet,6,888,NaN,bird,bear,c05,7288_con_dnn_c05_bear_10_n02132136_10301.JPEG
alexnet,6,889,NaN,bear,bear,c05,7289_con_dnn_c05_bear_10_n02134418_3211.JPEG
alexnet,6,890,NaN,bear,bear,c05,7290_con_dnn_c05_bear_10_n02132136_4676.JPEG
alexnet,6,891,NaN,boat,boat,c05,7291_con_dnn_c05_boat_10_n04612504_1791.JPEG
alexnet,6,892,NaN,airplane,boat,c05,7292_con_dnn_c05_boat_10_n03662601_4619.JPEG
alexnet,6,893,NaN,boat,boat,c05,7293_con_dnn_c05_boat_10_n03344393_1268.JPEG
alexnet,6,894,NaN,airplane,boat,c05,7294_con_dnn_c05_boat_10_n04273569_11833.JPEG
alexnet,6,895,NaN,bear,boat,c05,7295_con_dnn_c05_boat_10_n03344393_3103.JPEG
alexnet,6,896,NaN,clock,boat,c05,7296_con_dnn_c05_boat_10_n03662601_4466.JPEG
alexnet,6,897,NaN,bear,boat,c05,7297_con_dnn_c05_boat_10_n04273569_29283.JPEG
alexnet,6,898,NaN,bear,boat,c05,7298_con_dnn_c05_boat_10_n03662601_6042.JPEG
alexnet,6,899,NaN,boat,boat,c05,7299_con_dnn_c05_boat_10_n04273569_1622.JPEG
alexnet,6,900,NaN,boat,boat,c05,7300_con_dnn_c05_boat_10_n03344393_1085.JPEG
alexnet,6,901,NaN,bird,cat,c05,7301_con_dnn_c05_cat_10_n02125311_3277.JPEG
alexnet,6,902,NaN,bear,cat,c05,7302_con_dnn_c05_cat_10_n02123394_7410.JPEG
alexnet,6,903,NaN,airplane,cat,c05,7303_con_dnn_c05_cat_10_n02123394_7365.JPEG
alexnet,6,904,NaN,bird,cat,c05,7304_con_dnn_c05_cat_10_n02123597_4346.JPEG
alexnet,6,905,NaN,bird,cat,c05,7305_con_dnn_c05_cat_10_n02124075_11039.JPEG
alexnet,6,906,NaN,boat,cat,c05,7306_con_dnn_c05_cat_10_n02123597_6320.JPEG
alexnet,6,907,NaN,bear,cat,c05,7307_con_dnn_c05_cat_10_n02123394_821.JPEG
alexnet,6,908,NaN,bear,cat,c05,7308_con_dnn_c05_cat_10_n02125311_31451.JPEG
alexnet,6,909,NaN,bottle,cat,c05,7309_con_dnn_c05_cat_10_n02123045_10938.JPEG
alexnet,6,910,NaN,airplane,cat,c05,7310_con_dnn_c05_cat_10_n02123394_7646.JPEG
alexnet,6,911,NaN,bottle,bottle,c05,7311_con_dnn_c05_bottle_10_n04591713_5461.JPEG
alexnet,6,912,NaN,bear,bottle,c05,7312_con_dnn_c05_bottle_10_n04557648_10899.JPEG
alexnet,6,913,NaN,bottle,bottle,c05,7313_con_dnn_c05_bottle_10_n03983396_9090.JPEG
alexnet,6,914,NaN,bear,bottle,c05,7314_con_dnn_c05_bottle_10_n04579145_1783.JPEG
alexnet,6,915,NaN,boat,bottle,c05,7315_con_dnn_c05_bottle_10_n02823428_1959.JPEG
alexnet,6,916,NaN,bottle,bottle,c05,7316_con_dnn_c05_bottle_10_n03937543_2713.JPEG
alexnet,6,917,NaN,bottle,bottle,c05,7317_con_dnn_c05_bottle_10_n04560804_15029.JPEG
alexnet,6,918,NaN,bottle,bottle,c05,7318_con_dnn_c05_bottle_10_n04591713_5586.JPEG
alexnet,6,919,NaN,bear,bottle,c05,7319_con_dnn_c05_bottle_10_n03937543_2076.JPEG
alexnet,6,920,NaN,bear,bottle,c05,7320_con_dnn_c05_bottle_10_n04557648_9504.JPEG
alexnet,6,921,NaN,boat,truck,c05,7321_con_dnn_c05_truck_10_n03796401_16425.JPEG
alexnet,6,922,NaN,truck,truck,c05,7322_con_dnn_c05_truck_10_n03417042_18898.JPEG
alexnet,6,923,NaN,airplane,truck,c05,7323_con_dnn_c05_truck_10_n03417042_28886.JPEG
alexnet,6,924,NaN,truck,truck,c05,7324_con_dnn_c05_truck_10_n04467665_63534.JPEG
alexnet,6,925,NaN,bear,truck,c05,7325_con_dnn_c05_truck_10_n04467665_67853.JPEG
alexnet,6,926,NaN,boat,truck,c05,7326_con_dnn_c05_truck_10_n03796401_1835.JPEG
alexnet,6,927,NaN,airplane,truck,c05,7327_con_dnn_c05_truck_10_n04467665_70480.JPEG
alexnet,6,928,NaN,bear,truck,c05,7328_con_dnn_c05_truck_10_n03796401_15081.JPEG
alexnet,6,929,NaN,boat,truck,c05,7329_con_dnn_c05_truck_10_n03417042_7403.JPEG
alexnet,6,930,NaN,bear,truck,c05,7330_con_dnn_c05_truck_10_n03417042_7013.JPEG
alexnet,6,931,NaN,airplane,car,c05,7331_con_dnn_c05_car_10_n03100240_1248.JPEG
alexnet,6,932,NaN,bear,car,c05,7332_con_dnn_c05_car_10_n02814533_36330.JPEG
alexnet,6,933,NaN,airplane,car,c05,7333_con_dnn_c05_car_10_n02814533_18874.JPEG
alexnet,6,934,NaN,bear,car,c05,7334_con_dnn_c05_car_10_n03100240_4110.JPEG
alexnet,6,935,NaN,bear,car,c05,7335_con_dnn_c05_car_10_n03100240_2971.JPEG
alexnet,6,936,NaN,bear,car,c05,7336_con_dnn_c05_car_10_n04285008_1026.JPEG
alexnet,6,937,NaN,clock,car,c05,7337_con_dnn_c05_car_10_n04285008_10138.JPEG
alexnet,6,938,NaN,bottle,car,c05,7338_con_dnn_c05_car_10_n03100240_7134.JPEG
alexnet,6,939,NaN,bear,car,c05,7339_con_dnn_c05_car_10_n03100240_2331.JPEG
alexnet,6,940,NaN,bear,car,c05,7340_con_dnn_c05_car_10_n03100240_12336.JPEG
alexnet,6,941,NaN,bird,bird,c05,7341_con_dnn_c05_bird_10_n02037110_19300.JPEG
alexnet,6,942,NaN,bird,bird,c05,7342_con_dnn_c05_bird_10_n02011460_2409.JPEG
alexnet,6,943,NaN,boat,bird,c05,7343_con_dnn_c05_bird_10_n01817953_1767.JPEG
alexnet,6,944,NaN,bear,bird,c05,7344_con_dnn_c05_bird_10_n01829413_534.JPEG
alexnet,6,945,NaN,bottle,bird,c05,7345_con_dnn_c05_bird_10_n01860187_3904.JPEG
alexnet,6,946,NaN,bear,bird,c05,7346_con_dnn_c05_bird_10_n02007558_9150.JPEG
alexnet,6,947,NaN,boat,bird,c05,7347_con_dnn_c05_bird_10_n01833805_8637.JPEG
alexnet,6,948,NaN,bird,bird,c05,7348_con_dnn_c05_bird_10_n01795545_9936.JPEG
alexnet,6,949,NaN,bear,bird,c05,7349_con_dnn_c05_bird_10_n01860187_9387.JPEG
alexnet,6,950,NaN,bird,bird,c05,7350_con_dnn_c05_bird_10_n01855672_3890.JPEG
alexnet,6,951,NaN,airplane,dog,c05,7351_con_dnn_c05_dog_10_n02101556_2245.JPEG
alexnet,6,952,NaN,bear,dog,c05,7352_con_dnn_c05_dog_10_n02088238_2957.JPEG
alexnet,6,953,NaN,airplane,dog,c05,7353_con_dnn_c05_dog_10_n02089867_5123.JPEG
alexnet,6,954,NaN,bottle,dog,c05,7354_con_dnn_c05_dog_10_n02107908_7170.JPEG
alexnet,6,955,NaN,boat,dog,c05,7355_con_dnn_c05_dog_10_n02096585_10000.JPEG
alexnet,6,956,NaN,bear,dog,c05,7356_con_dnn_c05_dog_10_n02113624_3162.JPEG
alexnet,6,957,NaN,bear,dog,c05,7357_con_dnn_c05_dog_10_n02090721_3088.JPEG
alexnet,6,958,NaN,bear,dog,c05,7358_con_dnn_c05_dog_10_n02096585_3967.JPEG
alexnet,6,959,NaN,bear,dog,c05,7359_con_dnn_c05_dog_10_n02099601_10391.JPEG
alexnet,6,960,NaN,bottle,dog,c05,7360_con_dnn_c05_dog_10_n02110958_12848.JPEG
alexnet,6,961,NaN,bear,knife,c03,7361_con_dnn_c03_knife_10_n03041632_13612.JPEG
alexnet,6,962,NaN,bear,knife,c03,7362_con_dnn_c03_knife_10_n03041632_99912.JPEG
alexnet,6,963,NaN,bear,knife,c03,7363_con_dnn_c03_knife_10_n03041632_23678.JPEG
alexnet,6,964,NaN,bottle,knife,c03,7364_con_dnn_c03_knife_10_n03041632_91967.JPEG
alexnet,6,965,NaN,bear,knife,c03,7365_con_dnn_c03_knife_10_n03041632_50423.JPEG
alexnet,6,966,NaN,airplane,knife,c03,7366_con_dnn_c03_knife_10_n03041632_3247.JPEG
alexnet,6,967,NaN,bear,knife,c03,7367_con_dnn_c03_knife_10_n03041632_424.JPEG
alexnet,6,968,NaN,bear,knife,c03,7368_con_dnn_c03_knife_10_n03041632_38540.JPEG
alexnet,6,969,NaN,airplane,knife,c03,7369_con_dnn_c03_knife_10_n03041632_83826.JPEG
alexnet,6,970,NaN,airplane,knife,c03,7370_con_dnn_c03_knife_10_n03041632_25022.JPEG
alexnet,6,971,NaN,bear,keyboard,c03,7371_con_dnn_c03_keyboard_10_n03085013_19407.JPEG
alexnet,6,972,NaN,bear,keyboard,c03,7372_con_dnn_c03_keyboard_10_n04505470_2557.JPEG
alexnet,6,973,NaN,bear,keyboard,c03,7373_con_dnn_c03_keyboard_10_n03085013_17523.JPEG
alexnet,6,974,NaN,airplane,keyboard,c03,7374_con_dnn_c03_keyboard_10_n03085013_23223.JPEG
alexnet,6,975,NaN,bear,keyboard,c03,7375_con_dnn_c03_keyboard_10_n04505470_7421.JPEG
alexnet,6,976,NaN,bear,keyboard,c03,7376_con_dnn_c03_keyboard_10_n03085013_20784.JPEG
alexnet,6,977,NaN,airplane,keyboard,c03,7377_con_dnn_c03_keyboard_10_n03085013_20269.JPEG
alexnet,6,978,NaN,bear,keyboard,c03,7378_con_dnn_c03_keyboard_10_n03085013_2808.JPEG
alexnet,6,979,NaN,bear,keyboard,c03,7379_con_dnn_c03_keyboard_10_n03085013_3691.JPEG
alexnet,6,980,NaN,bear,keyboard,c03,7380_con_dnn_c03_keyboard_10_n03085013_20462.JPEG
alexnet,6,981,NaN,bear,elephant,c03,7381_con_dnn_c03_elephant_10_n02504013_1243.JPEG
alexnet,6,982,NaN,airplane,elephant,c03,7382_con_dnn_c03_elephant_10_n02504458_2968.JPEG
alexnet,6,983,NaN,boat,elephant,c03,7383_con_dnn_c03_elephant_10_n02504458_1735.JPEG
alexnet,6,984,NaN,airplane,elephant,c03,7384_con_dnn_c03_elephant_10_n02504458_8621.JPEG
alexnet,6,985,NaN,bear,elephant,c03,7385_con_dnn_c03_elephant_10_n02504458_4180.JPEG
alexnet,6,986,NaN,bear,elephant,c03,7386_con_dnn_c03_elephant_10_n02504013_10377.JPEG
alexnet,6,987,NaN,bear,elephant,c03,7387_con_dnn_c03_elephant_10_n02504013_6467.JPEG
alexnet,6,988,NaN,bear,elephant,c03,7388_con_dnn_c03_elephant_10_n02504013_4231.JPEG
alexnet,6,989,NaN,bear,elephant,c03,7389_con_dnn_c03_elephant_10_n02504458_3287.JPEG
alexnet,6,990,NaN,bear,elephant,c03,7390_con_dnn_c03_elephant_10_n02504458_5823.JPEG
alexnet,6,991,NaN,bear,bicycle,c03,7391_con_dnn_c03_bicycle_10_n03792782_3069.JPEG
alexnet,6,992,NaN,airplane,bicycle,c03,7392_con_dnn_c03_bicycle_10_n02835271_7685.JPEG
alexnet,6,993,NaN,bear,bicycle,c03,7393_con_dnn_c03_bicycle_10_n03792782_50569.JPEG
alexnet,6,994,NaN,bear,bicycle,c03,7394_con_dnn_c03_bicycle_10_n02835271_2900.JPEG
alexnet,6,995,NaN,bird,bicycle,c03,7395_con_dnn_c03_bicycle_10_n02835271_18188.JPEG
alexnet,6,996,NaN,bear,bicycle,c03,7396_con_dnn_c03_bicycle_10_n02835271_13180.JPEG
alexnet,6,997,NaN,airplane,bicycle,c03,7397_con_dnn_c03_bicycle_10_n03792782_22908.JPEG
alexnet,6,998,NaN,bear,bicycle,c03,7398_con_dnn_c03_bicycle_10_n02835271_11844.JPEG
alexnet,6,999,NaN,bear,bicycle,c03,7399_con_dnn_c03_bicycle_10_n02835271_19177.JPEG
alexnet,6,1000,NaN,airplane,bicycle,c03,7400_con_dnn_c03_bicycle_10_n03792782_5449.JPEG
alexnet,6,1001,NaN,airplane,airplane,c03,7401_con_dnn_c03_airplane_10_n02690373_8539.JPEG
alexnet,6,1002,NaN,airplane,airplane,c03,7402_con_dnn_c03_airplane_10_n02690373_7293.JPEG
alexnet,6,1003,NaN,airplane,airplane,c03,7403_con_dnn_c03_airplane_10_n02690373_6535.JPEG
alexnet,6,1004,NaN,airplane,airplane,c03,7404_con_dnn_c03_airplane_10_n02690373_1983.JPEG
alexnet,6,1005,NaN,airplane,airplane,c03,7405_con_dnn_c03_airplane_10_n02690373_2935.JPEG
alexnet,6,1006,NaN,bear,airplane,c03,7406_con_dnn_c03_airplane_10_n02690373_17694.JPEG
alexnet,6,1007,NaN,bear,airplane,c03,7407_con_dnn_c03_airplane_10_n02690373_20350.JPEG
alexnet,6,1008,NaN,bear,airplane,c03,7408_con_dnn_c03_airplane_10_n02690373_5917.JPEG
alexnet,6,1009,NaN,airplane,airplane,c03,7409_con_dnn_c03_airplane_10_n02690373_19438.JPEG
alexnet,6,1010,NaN,airplane,airplane,c03,7410_con_dnn_c03_airplane_10_n02690373_633.JPEG
alexnet,6,1011,NaN,airplane,clock,c03,7411_con_dnn_c03_clock_10_n04548280_1254.JPEG
alexnet,6,1012,NaN,clock,clock,c03,7412_con_dnn_c03_clock_10_n04548280_2.JPEG
alexnet,6,1013,NaN,clock,clock,c03,7413_con_dnn_c03_clock_10_n02708093_148.JPEG
alexnet,6,1014,NaN,bear,clock,c03,7414_con_dnn_c03_clock_10_n04548280_260.JPEG
alexnet,6,1015,NaN,knife,clock,c03,7415_con_dnn_c03_clock_10_n03196217_3343.JPEG
alexnet,6,1016,NaN,clock,clock,c03,7416_con_dnn_c03_clock_10_n04548280_5545.JPEG
alexnet,6,1017,NaN,bear,clock,c03,7417_con_dnn_c03_clock_10_n04548280_156.JPEG
alexnet,6,1018,NaN,bird,clock,c03,7418_con_dnn_c03_clock_10_n04548280_2399.JPEG
alexnet,6,1019,NaN,airplane,clock,c03,7419_con_dnn_c03_clock_10_n03196217_1275.JPEG
alexnet,6,1020,NaN,airplane,clock,c03,7420_con_dnn_c03_clock_10_n04548280_8304.JPEG
alexnet,6,1021,NaN,bear,oven,c03,7421_con_dnn_c03_oven_10_n04111531_8603.JPEG
alexnet,6,1022,NaN,airplane,oven,c03,7422_con_dnn_c03_oven_10_n04111531_3955.JPEG
alexnet,6,1023,NaN,bear,oven,c03,7423_con_dnn_c03_oven_10_n04111531_5694.JPEG
alexnet,6,1024,NaN,airplane,oven,c03,7424_con_dnn_c03_oven_10_n04111531_7430.JPEG
alexnet,6,1025,NaN,airplane,oven,c03,7425_con_dnn_c03_oven_10_n04111531_6172.JPEG
alexnet,6,1026,NaN,bear,oven,c03,7426_con_dnn_c03_oven_10_n04111531_1661.JPEG
alexnet,6,1027,NaN,bear,oven,c03,7427_con_dnn_c03_oven_10_n04111531_12450.JPEG
alexnet,6,1028,NaN,bear,oven,c03,7428_con_dnn_c03_oven_10_n04111531_1549.JPEG
alexnet,6,1029,NaN,bear,oven,c03,7429_con_dnn_c03_oven_10_n04111531_7600.JPEG
alexnet,6,1030,NaN,bear,oven,c03,7430_con_dnn_c03_oven_10_n04111531_520.JPEG
alexnet,6,1031,NaN,boat,chair,c03,7431_con_dnn_c03_chair_10_n04099969_1652.JPEG
alexnet,6,1032,NaN,airplane,chair,c03,7432_con_dnn_c03_chair_10_n03376595_11114.JPEG
alexnet,6,1033,NaN,airplane,chair,c03,7433_con_dnn_c03_chair_10_n02791124_6648.JPEG
alexnet,6,1034,NaN,bear,chair,c03,7434_con_dnn_c03_chair_10_n03376595_8633.JPEG
alexnet,6,1035,NaN,airplane,chair,c03,7435_con_dnn_c03_chair_10_n03376595_1502.JPEG
alexnet,6,1036,NaN,boat,chair,c03,7436_con_dnn_c03_chair_10_n02791124_7630.JPEG
alexnet,6,1037,NaN,bear,chair,c03,7437_con_dnn_c03_chair_10_n02791124_886.JPEG
alexnet,6,1038,NaN,bear,chair,c03,7438_con_dnn_c03_chair_10_n03376595_2657.JPEG
alexnet,6,1039,NaN,airplane,chair,c03,7439_con_dnn_c03_chair_10_n03376595_989.JPEG
alexnet,6,1040,NaN,chair,chair,c03,7440_con_dnn_c03_chair_10_n04099969_7065.JPEG
alexnet,6,1041,NaN,bear,bear,c03,7441_con_dnn_c03_bear_10_n02132136_19136.JPEG
alexnet,6,1042,NaN,bear,bear,c03,7442_con_dnn_c03_bear_10_n02132136_21096.JPEG
alexnet,6,1043,NaN,airplane,bear,c03,7443_con_dnn_c03_bear_10_n02132136_131.JPEG
alexnet,6,1044,NaN,bear,bear,c03,7444_con_dnn_c03_bear_10_n02134418_22359.JPEG
alexnet,6,1045,NaN,bear,bear,c03,7445_con_dnn_c03_bear_10_n02134084_3125.JPEG
alexnet,6,1046,NaN,airplane,bear,c03,7446_con_dnn_c03_bear_10_n02134418_20451.JPEG
alexnet,6,1047,NaN,airplane,bear,c03,7447_con_dnn_c03_bear_10_n02133161_10116.JPEG
alexnet,6,1048,NaN,bear,bear,c03,7448_con_dnn_c03_bear_10_n02133161_10632.JPEG
alexnet,6,1049,NaN,bear,bear,c03,7449_con_dnn_c03_bear_10_n02132136_18353.JPEG
alexnet,6,1050,NaN,bear,bear,c03,7450_con_dnn_c03_bear_10_n02132136_14588.JPEG
alexnet,6,1051,NaN,boat,boat,c03,7451_con_dnn_c03_boat_10_n04612504_4217.JPEG
alexnet,6,1052,NaN,airplane,boat,c03,7452_con_dnn_c03_boat_10_n03344393_7870.JPEG
alexnet,6,1053,NaN,bear,boat,c03,7453_con_dnn_c03_boat_10_n03344393_3247.JPEG
alexnet,6,1054,NaN,airplane,boat,c03,7454_con_dnn_c03_boat_10_n03344393_9214.JPEG
alexnet,6,1055,NaN,airplane,boat,c03,7455_con_dnn_c03_boat_10_n04273569_8680.JPEG
alexnet,6,1056,NaN,bear,boat,c03,7456_con_dnn_c03_boat_10_n03662601_8933.JPEG
alexnet,6,1057,NaN,boat,boat,c03,7457_con_dnn_c03_boat_10_n03662601_13963.JPEG
alexnet,6,1058,NaN,boat,boat,c03,7458_con_dnn_c03_boat_10_n04612504_7711.JPEG
alexnet,6,1059,NaN,boat,boat,c03,7459_con_dnn_c03_boat_10_n04612504_19177.JPEG
alexnet,6,1060,NaN,bear,boat,c03,7460_con_dnn_c03_boat_10_n04612504_18769.JPEG
alexnet,6,1061,NaN,airplane,cat,c03,7461_con_dnn_c03_cat_10_n02124075_11030.JPEG
alexnet,6,1062,NaN,airplane,cat,c03,7462_con_dnn_c03_cat_10_n02123394_797.JPEG
alexnet,6,1063,NaN,airplane,cat,c03,7463_con_dnn_c03_cat_10_n02123597_4204.JPEG
alexnet,6,1064,NaN,bear,cat,c03,7464_con_dnn_c03_cat_10_n02123597_8799.JPEG
alexnet,6,1065,NaN,airplane,cat,c03,7465_con_dnn_c03_cat_10_n02125311_33778.JPEG
alexnet,6,1066,NaN,bear,cat,c03,7466_con_dnn_c03_cat_10_n02123597_4459.JPEG
alexnet,6,1067,NaN,airplane,cat,c03,7467_con_dnn_c03_cat_10_n02123394_454.JPEG
alexnet,6,1068,NaN,bear,cat,c03,7468_con_dnn_c03_cat_10_n02125311_1433.JPEG
alexnet,6,1069,NaN,bear,cat,c03,7469_con_dnn_c03_cat_10_n02125311_53822.JPEG
alexnet,6,1070,NaN,airplane,cat,c03,7470_con_dnn_c03_cat_10_n02123394_1135.JPEG
alexnet,6,1071,NaN,bear,bottle,c03,7471_con_dnn_c03_bottle_10_n03937543_1252.JPEG
alexnet,6,1072,NaN,bird,bottle,c03,7472_con_dnn_c03_bottle_10_n03983396_3112.JPEG
alexnet,6,1073,NaN,airplane,bottle,c03,7473_con_dnn_c03_bottle_10_n02823428_889.JPEG
alexnet,6,1074,NaN,bear,bottle,c03,7474_con_dnn_c03_bottle_10_n04591713_4192.JPEG
alexnet,6,1075,NaN,bear,bottle,c03,7475_con_dnn_c03_bottle_10_n04560804_4038.JPEG
alexnet,6,1076,NaN,bottle,bottle,c03,7476_con_dnn_c03_bottle_10_n03983396_4587.JPEG
alexnet,6,1077,NaN,bottle,bottle,c03,7477_con_dnn_c03_bottle_10_n04557648_3481.JPEG
alexnet,6,1078,NaN,bottle,bottle,c03,7478_con_dnn_c03_bottle_10_n02823428_376.JPEG
alexnet,6,1079,NaN,bear,bottle,c03,7479_con_dnn_c03_bottle_10_n03983396_22353.JPEG
alexnet,6,1080,NaN,bear,bottle,c03,7480_con_dnn_c03_bottle_10_n03983396_4582.JPEG
alexnet,6,1081,NaN,bear,truck,c03,7481_con_dnn_c03_truck_10_n03796401_26939.JPEG
alexnet,6,1082,NaN,airplane,truck,c03,7482_con_dnn_c03_truck_10_n03417042_2204.JPEG
alexnet,6,1083,NaN,bear,truck,c03,7483_con_dnn_c03_truck_10_n04467665_56815.JPEG
alexnet,6,1084,NaN,bear,truck,c03,7484_con_dnn_c03_truck_10_n03417042_5813.JPEG
alexnet,6,1085,NaN,bear,truck,c03,7485_con_dnn_c03_truck_10_n04467665_18234.JPEG
alexnet,6,1086,NaN,bear,truck,c03,7486_con_dnn_c03_truck_10_n03417042_7472.JPEG
alexnet,6,1087,NaN,bear,truck,c03,7487_con_dnn_c03_truck_10_n03796401_6771.JPEG
alexnet,6,1088,NaN,airplane,truck,c03,7488_con_dnn_c03_truck_10_n03417042_11944.JPEG
alexnet,6,1089,NaN,bear,truck,c03,7489_con_dnn_c03_truck_10_n03796401_3577.JPEG
alexnet,6,1090,NaN,bear,truck,c03,7490_con_dnn_c03_truck_10_n03417042_4587.JPEG
alexnet,6,1091,NaN,bear,car,c03,7491_con_dnn_c03_car_10_n04285008_13156.JPEG
alexnet,6,1092,NaN,bear,car,c03,7492_con_dnn_c03_car_10_n02814533_82428.JPEG
alexnet,6,1093,NaN,airplane,car,c03,7493_con_dnn_c03_car_10_n02814533_13150.JPEG
alexnet,6,1094,NaN,bear,car,c03,7494_con_dnn_c03_car_10_n04285008_7533.JPEG
alexnet,6,1095,NaN,bear,car,c03,7495_con_dnn_c03_car_10_n04285008_632.JPEG
alexnet,6,1096,NaN,bear,car,c03,7496_con_dnn_c03_car_10_n03100240_7572.JPEG
alexnet,6,1097,NaN,bear,car,c03,7497_con_dnn_c03_car_10_n03100240_23195.JPEG
alexnet,6,1098,NaN,airplane,car,c03,7498_con_dnn_c03_car_10_n04285008_3096.JPEG
alexnet,6,1099,NaN,airplane,car,c03,7499_con_dnn_c03_car_10_n03100240_10001.JPEG
alexnet,6,1100,NaN,airplane,car,c03,7500_con_dnn_c03_car_10_n02814533_94244.JPEG
alexnet,6,1101,NaN,bird,bird,c03,7501_con_dnn_c03_bird_10_n01558993_5699.JPEG
alexnet,6,1102,NaN,bird,bird,c03,7502_con_dnn_c03_bird_10_n02009229_5295.JPEG
alexnet,6,1103,NaN,airplane,bird,c03,7503_con_dnn_c03_bird_10_n02037110_8182.JPEG
alexnet,6,1104,NaN,airplane,bird,c03,7504_con_dnn_c03_bird_10_n01537544_11815.JPEG
alexnet,6,1105,NaN,boat,bird,c03,7505_con_dnn_c03_bird_10_n01531178_11794.JPEG
alexnet,6,1106,NaN,bear,bird,c03,7506_con_dnn_c03_bird_10_n02056570_8821.JPEG
alexnet,6,1107,NaN,bear,bird,c03,7507_con_dnn_c03_bird_10_n02007558_6124.JPEG
alexnet,6,1108,NaN,airplane,bird,c03,7508_con_dnn_c03_bird_10_n01558993_6575.JPEG
alexnet,6,1109,NaN,airplane,bird,c03,7509_con_dnn_c03_bird_10_n01820546_1079.JPEG
alexnet,6,1110,NaN,bear,bird,c03,7510_con_dnn_c03_bird_10_n01797886_14815.JPEG
alexnet,6,1111,NaN,bear,dog,c03,7511_con_dnn_c03_dog_10_n02108422_11434.JPEG
alexnet,6,1112,NaN,bear,dog,c03,7512_con_dnn_c03_dog_10_n02106550_286.JPEG
alexnet,6,1113,NaN,airplane,dog,c03,7513_con_dnn_c03_dog_10_n02106382_9217.JPEG
alexnet,6,1114,NaN,bird,dog,c03,7514_con_dnn_c03_dog_10_n02110958_6114.JPEG
alexnet,6,1115,NaN,bear,dog,c03,7515_con_dnn_c03_dog_10_n02090721_6076.JPEG
alexnet,6,1116,NaN,bear,dog,c03,7516_con_dnn_c03_dog_10_n02111277_11820.JPEG
alexnet,6,1117,NaN,bear,dog,c03,7517_con_dnn_c03_dog_10_n02090622_947.JPEG
alexnet,6,1118,NaN,bear,dog,c03,7518_con_dnn_c03_dog_10_n02109047_1598.JPEG
alexnet,6,1119,NaN,bear,dog,c03,7519_con_dnn_c03_dog_10_n02113799_4325.JPEG
alexnet,6,1120,NaN,bear,dog,c03,7520_con_dnn_c03_dog_10_n02102318_3439.JPEG
alexnet,6,1121,NaN,airplane,knife,c01,7521_con_dnn_c01_knife_10_n03041632_40887.JPEG
alexnet,6,1122,NaN,airplane,knife,c01,7522_con_dnn_c01_knife_10_n03041632_7064.JPEG
alexnet,6,1123,NaN,airplane,knife,c01,7523_con_dnn_c01_knife_10_n03041632_45264.JPEG
alexnet,6,1124,NaN,airplane,knife,c01,7524_con_dnn_c01_knife_10_n03041632_3063.JPEG
alexnet,6,1125,NaN,airplane,knife,c01,7525_con_dnn_c01_knife_10_n03041632_36215.JPEG
alexnet,6,1126,NaN,airplane,knife,c01,7526_con_dnn_c01_knife_10_n03041632_31363.JPEG
alexnet,6,1127,NaN,airplane,knife,c01,7527_con_dnn_c01_knife_10_n03041632_4708.JPEG
alexnet,6,1128,NaN,airplane,knife,c01,7528_con_dnn_c01_knife_10_n03041632_19098.JPEG
alexnet,6,1129,NaN,airplane,knife,c01,7529_con_dnn_c01_knife_10_n03041632_33326.JPEG
alexnet,6,1130,NaN,airplane,knife,c01,7530_con_dnn_c01_knife_10_n03041632_4714.JPEG
alexnet,6,1131,NaN,airplane,keyboard,c01,7531_con_dnn_c01_keyboard_10_n04505470_4492.JPEG
alexnet,6,1132,NaN,airplane,keyboard,c01,7532_con_dnn_c01_keyboard_10_n03085013_5667.JPEG
alexnet,6,1133,NaN,airplane,keyboard,c01,7533_con_dnn_c01_keyboard_10_n03085013_17455.JPEG
alexnet,6,1134,NaN,airplane,keyboard,c01,7534_con_dnn_c01_keyboard_10_n03085013_23790.JPEG
alexnet,6,1135,NaN,airplane,keyboard,c01,7535_con_dnn_c01_keyboard_10_n04505470_709.JPEG
alexnet,6,1136,NaN,bear,keyboard,c01,7536_con_dnn_c01_keyboard_10_n04505470_8822.JPEG
alexnet,6,1137,NaN,airplane,keyboard,c01,7537_con_dnn_c01_keyboard_10_n03085013_19880.JPEG
alexnet,6,1138,NaN,airplane,keyboard,c01,7538_con_dnn_c01_keyboard_10_n03085013_2464.JPEG
alexnet,6,1139,NaN,airplane,keyboard,c01,7539_con_dnn_c01_keyboard_10_n04505470_9998.JPEG
alexnet,6,1140,NaN,airplane,keyboard,c01,7540_con_dnn_c01_keyboard_10_n03085013_18779.JPEG
alexnet,6,1141,NaN,airplane,elephant,c01,7541_con_dnn_c01_elephant_10_n02504458_396.JPEG
alexnet,6,1142,NaN,airplane,elephant,c01,7542_con_dnn_c01_elephant_10_n02504013_9362.JPEG
alexnet,6,1143,NaN,airplane,elephant,c01,7543_con_dnn_c01_elephant_10_n02504013_21340.JPEG
alexnet,6,1144,NaN,airplane,elephant,c01,7544_con_dnn_c01_elephant_10_n02504013_3568.JPEG
alexnet,6,1145,NaN,airplane,elephant,c01,7545_con_dnn_c01_elephant_10_n02504013_17391.JPEG
alexnet,6,1146,NaN,airplane,elephant,c01,7546_con_dnn_c01_elephant_10_n02504013_6769.JPEG
alexnet,6,1147,NaN,airplane,elephant,c01,7547_con_dnn_c01_elephant_10_n02504013_464.JPEG
alexnet,6,1148,NaN,airplane,elephant,c01,7548_con_dnn_c01_elephant_10_n02504458_8755.JPEG
alexnet,6,1149,NaN,airplane,elephant,c01,7549_con_dnn_c01_elephant_10_n02504458_6878.JPEG
alexnet,6,1150,NaN,airplane,elephant,c01,7550_con_dnn_c01_elephant_10_n02504013_26543.JPEG
alexnet,6,1151,NaN,airplane,bicycle,c01,7551_con_dnn_c01_bicycle_10_n03792782_2267.JPEG
alexnet,6,1152,NaN,airplane,bicycle,c01,7552_con_dnn_c01_bicycle_10_n02835271_19711.JPEG
alexnet,6,1153,NaN,airplane,bicycle,c01,7553_con_dnn_c01_bicycle_10_n03792782_1955.JPEG
alexnet,6,1154,NaN,airplane,bicycle,c01,7554_con_dnn_c01_bicycle_10_n03792782_44779.JPEG
alexnet,6,1155,NaN,airplane,bicycle,c01,7555_con_dnn_c01_bicycle_10_n02835271_17617.JPEG
alexnet,6,1156,NaN,airplane,bicycle,c01,7556_con_dnn_c01_bicycle_10_n02835271_9690.JPEG
alexnet,6,1157,NaN,airplane,bicycle,c01,7557_con_dnn_c01_bicycle_10_n02835271_311.JPEG
alexnet,6,1158,NaN,airplane,bicycle,c01,7558_con_dnn_c01_bicycle_10_n02835271_9862.JPEG
alexnet,6,1159,NaN,airplane,bicycle,c01,7559_con_dnn_c01_bicycle_10_n03792782_24722.JPEG
alexnet,6,1160,NaN,airplane,bicycle,c01,7560_con_dnn_c01_bicycle_10_n02835271_7326.JPEG
alexnet,6,1161,NaN,airplane,airplane,c01,7561_con_dnn_c01_airplane_10_n02690373_9137.JPEG
alexnet,6,1162,NaN,airplane,airplane,c01,7562_con_dnn_c01_airplane_10_n02690373_166.JPEG
alexnet,6,1163,NaN,airplane,airplane,c01,7563_con_dnn_c01_airplane_10_n02690373_2324.JPEG
alexnet,6,1164,NaN,airplane,airplane,c01,7564_con_dnn_c01_airplane_10_n02690373_5714.JPEG
alexnet,6,1165,NaN,airplane,airplane,c01,7565_con_dnn_c01_airplane_10_n02690373_6663.JPEG
alexnet,6,1166,NaN,airplane,airplane,c01,7566_con_dnn_c01_airplane_10_n02690373_3775.JPEG
alexnet,6,1167,NaN,airplane,airplane,c01,7567_con_dnn_c01_airplane_10_n02690373_6602.JPEG
alexnet,6,1168,NaN,airplane,airplane,c01,7568_con_dnn_c01_airplane_10_n02690373_5184.JPEG
alexnet,6,1169,NaN,airplane,airplane,c01,7569_con_dnn_c01_airplane_10_n02690373_5177.JPEG
alexnet,6,1170,NaN,airplane,airplane,c01,7570_con_dnn_c01_airplane_10_n02690373_9762.JPEG
alexnet,6,1171,NaN,airplane,clock,c01,7571_con_dnn_c01_clock_10_n02708093_8309.JPEG
alexnet,6,1172,NaN,airplane,clock,c01,7572_con_dnn_c01_clock_10_n03196217_5258.JPEG
alexnet,6,1173,NaN,airplane,clock,c01,7573_con_dnn_c01_clock_10_n02708093_3759.JPEG
alexnet,6,1174,NaN,airplane,clock,c01,7574_con_dnn_c01_clock_10_n03196217_2307.JPEG
alexnet,6,1175,NaN,airplane,clock,c01,7575_con_dnn_c01_clock_10_n02708093_7006.JPEG
alexnet,6,1176,NaN,airplane,clock,c01,7576_con_dnn_c01_clock_10_n02708093_2057.JPEG
alexnet,6,1177,NaN,airplane,clock,c01,7577_con_dnn_c01_clock_10_n03196217_5888.JPEG
alexnet,6,1178,NaN,airplane,clock,c01,7578_con_dnn_c01_clock_10_n03196217_170.JPEG
alexnet,6,1179,NaN,airplane,clock,c01,7579_con_dnn_c01_clock_10_n04548280_3208.JPEG
alexnet,6,1180,NaN,bird,clock,c01,7580_con_dnn_c01_clock_10_n04548280_2778.JPEG
alexnet,6,1181,NaN,airplane,oven,c01,7581_con_dnn_c01_oven_10_n04111531_19157.JPEG
alexnet,6,1182,NaN,airplane,oven,c01,7582_con_dnn_c01_oven_10_n04111531_21309.JPEG
alexnet,6,1183,NaN,airplane,oven,c01,7583_con_dnn_c01_oven_10_n04111531_17072.JPEG
alexnet,6,1184,NaN,airplane,oven,c01,7584_con_dnn_c01_oven_10_n04111531_22388.JPEG
alexnet,6,1185,NaN,airplane,oven,c01,7585_con_dnn_c01_oven_10_n04111531_6049.JPEG
alexnet,6,1186,NaN,airplane,oven,c01,7586_con_dnn_c01_oven_10_n04111531_774.JPEG
alexnet,6,1187,NaN,airplane,oven,c01,7587_con_dnn_c01_oven_10_n04111531_344.JPEG
alexnet,6,1188,NaN,airplane,oven,c01,7588_con_dnn_c01_oven_10_n04111531_5801.JPEG
alexnet,6,1189,NaN,airplane,oven,c01,7589_con_dnn_c01_oven_10_n04111531_8036.JPEG
alexnet,6,1190,NaN,airplane,oven,c01,7590_con_dnn_c01_oven_10_n04111531_6313.JPEG
alexnet,6,1191,NaN,airplane,chair,c01,7591_con_dnn_c01_chair_10_n03376595_10266.JPEG
alexnet,6,1192,NaN,airplane,chair,c01,7592_con_dnn_c01_chair_10_n03376595_6893.JPEG
alexnet,6,1193,NaN,airplane,chair,c01,7593_con_dnn_c01_chair_10_n03376595_1047.JPEG
alexnet,6,1194,NaN,airplane,chair,c01,7594_con_dnn_c01_chair_10_n02791124_17001.JPEG
alexnet,6,1195,NaN,airplane,chair,c01,7595_con_dnn_c01_chair_10_n04429376_19905.JPEG
alexnet,6,1196,NaN,airplane,chair,c01,7596_con_dnn_c01_chair_10_n04099969_26310.JPEG
alexnet,6,1197,NaN,airplane,chair,c01,7597_con_dnn_c01_chair_10_n04099969_439.JPEG
alexnet,6,1198,NaN,airplane,chair,c01,7598_con_dnn_c01_chair_10_n04429376_6690.JPEG
alexnet,6,1199,NaN,airplane,chair,c01,7599_con_dnn_c01_chair_10_n04429376_92.JPEG
alexnet,6,1200,NaN,airplane,chair,c01,7600_con_dnn_c01_chair_10_n02791124_3708.JPEG
alexnet,6,1201,NaN,airplane,bear,c01,7601_con_dnn_c01_bear_10_n02133161_1133.JPEG
alexnet,6,1202,NaN,airplane,bear,c01,7602_con_dnn_c01_bear_10_n02132136_3163.JPEG
alexnet,6,1203,NaN,airplane,bear,c01,7603_con_dnn_c01_bear_10_n02133161_15789.JPEG
alexnet,6,1204,NaN,airplane,bear,c01,7604_con_dnn_c01_bear_10_n02133161_1953.JPEG
alexnet,6,1205,NaN,airplane,bear,c01,7605_con_dnn_c01_bear_10_n02132136_23163.JPEG
alexnet,6,1206,NaN,airplane,bear,c01,7606_con_dnn_c01_bear_10_n02133161_1495.JPEG
alexnet,6,1207,NaN,airplane,bear,c01,7607_con_dnn_c01_bear_10_n02132136_23774.JPEG
alexnet,6,1208,NaN,airplane,bear,c01,7608_con_dnn_c01_bear_10_n02134418_3651.JPEG
alexnet,6,1209,NaN,airplane,bear,c01,7609_con_dnn_c01_bear_10_n02133161_14810.JPEG
alexnet,6,1210,NaN,airplane,bear,c01,7610_con_dnn_c01_bear_10_n02134418_2590.JPEG
alexnet,6,1211,NaN,bird,boat,c01,7611_con_dnn_c01_boat_10_n03344393_3978.JPEG
alexnet,6,1212,NaN,airplane,boat,c01,7612_con_dnn_c01_boat_10_n03662601_15971.JPEG
alexnet,6,1213,NaN,bird,boat,c01,7613_con_dnn_c01_boat_10_n02951358_15678.JPEG
alexnet,6,1214,NaN,airplane,boat,c01,7614_con_dnn_c01_boat_10_n02951358_1240.JPEG
