subj,session,trial,rt,object_response,category,condition,imagename
vgg,5,1,NaN,knife,knife,c100,5121_con_dnn_c100_knife_10_n03041632_31037.JPEG
vgg,5,2,NaN,knife,knife,c100,5122_con_dnn_c100_knife_10_n03041632_26053.JPEG
vgg,5,3,NaN,knife,knife,c100,5123_con_dnn_c100_knife_10_n03041632_18766.JPEG
vgg,5,4,NaN,knife,knife,c100,5124_con_dnn_c100_knife_10_n03041632_26933.JPEG
vgg,5,5,NaN,knife,knife,c100,5125_con_dnn_c100_knife_10_n03041632_101553.JPEG
vgg,5,6,NaN,knife,knife,c100,5126_con_dnn_c100_knife_10_n03041632_9759.JPEG
vgg,5,7,NaN,knife,knife,c100,5127_con_dnn_c100_knife_10_n03041632_18601.JPEG
vgg,5,8,NaN,knife,knife,c100,5128_con_dnn_c100_knife_10_n03041632_47743.JPEG
vgg,5,9,NaN,chair,knife,c100,5129_con_dnn_c100_knife_10_n03041632_27848.JPEG
vgg,5,10,NaN,chair,knife,c100,5130_con_dnn_c100_knife_10_n03041632_21017.JPEG
vgg,5,11,NaN,keyboard,keyboard,c100,5131_con_dnn_c100_keyboard_10_n04505470_989.JPEG
vgg,5,12,NaN,keyboard,keyboard,c100,5132_con_dnn_c100_keyboard_10_n03085013_21183.JPEG
vgg,5,13,NaN,keyboard,keyboard,c100,5133_con_dnn_c100_keyboard_10_n04505470_4742.JPEG
vgg,5,14,NaN,keyboard,keyboard,c100,5134_con_dnn_c100_keyboard_10_n04505470_4356.JPEG
vgg,5,15,NaN,keyboard,keyboard,c100,5135_con_dnn_c100_keyboard_10_n04505470_7015.JPEG
vgg,5,16,NaN,keyboard,keyboard,c100,5136_con_dnn_c100_keyboard_10_n03085013_21444.JPEG
vgg,5,17,NaN,keyboard,keyboard,c100,5137_con_dnn_c100_keyboard_10_n03085013_14427.JPEG
vgg,5,18,NaN,keyboard,keyboard,c100,5138_con_dnn_c100_keyboard_10_n03085013_7010.JPEG
vgg,5,19,NaN,keyboard,keyboard,c100,5139_con_dnn_c100_keyboard_10_n04505470_1342.JPEG
vgg,5,20,NaN,keyboard,keyboard,c100,5140_con_dnn_c100_keyboard_10_n03085013_20180.JPEG
vgg,5,21,NaN,elephant,elephant,c100,5141_con_dnn_c100_elephant_10_n02504013_4099.JPEG
vgg,5,22,NaN,elephant,elephant,c100,5142_con_dnn_c100_elephant_10_n02504013_13512.JPEG
vgg,5,23,NaN,elephant,elephant,c100,5143_con_dnn_c100_elephant_10_n02504013_1585.JPEG
vgg,5,24,NaN,elephant,elephant,c100,5144_con_dnn_c100_elephant_10_n02504013_2640.JPEG
vgg,5,25,NaN,elephant,elephant,c100,5145_con_dnn_c100_elephant_10_n02504458_1471.JPEG
vgg,5,26,NaN,elephant,elephant,c100,5146_con_dnn_c100_elephant_10_n02504458_6368.JPEG
vgg,5,27,NaN,elephant,elephant,c100,5147_con_dnn_c100_elephant_10_n02504013_252.JPEG
vgg,5,28,NaN,elephant,elephant,c100,5148_con_dnn_c100_elephant_10_n02504013_446.JPEG
vgg,5,29,NaN,elephant,elephant,c100,5149_con_dnn_c100_elephant_10_n02504458_6694.JPEG
vgg,5,30,NaN,elephant,elephant,c100,5150_con_dnn_c100_elephant_10_n02504013_10506.JPEG
vgg,5,31,NaN,bicycle,bicycle,c100,5151_con_dnn_c100_bicycle_10_n03792782_16034.JPEG
vgg,5,32,NaN,bicycle,bicycle,c100,5152_con_dnn_c100_bicycle_10_n03792782_8204.JPEG
vgg,5,33,NaN,bicycle,bicycle,c100,5153_con_dnn_c100_bicycle_10_n03792782_1412.JPEG
vgg,5,34,NaN,bicycle,bicycle,c100,5154_con_dnn_c100_bicycle_10_n03792782_4502.JPEG
vgg,5,35,NaN,bicycle,bicycle,c100,5155_con_dnn_c100_bicycle_10_n02835271_10414.JPEG
vgg,5,36,NaN,bicycle,bicycle,c100,5156_con_dnn_c100_bicycle_10_n03792782_22620.JPEG
vgg,5,37,NaN,bicycle,bicycle,c100,5157_con_dnn_c100_bicycle_10_n03792782_18665.JPEG
vgg,5,38,NaN,bicycle,bicycle,c100,5158_con_dnn_c100_bicycle_10_n02835271_445.JPEG
vgg,5,39,NaN,bicycle,bicycle,c100,5159_con_dnn_c100_bicycle_10_n03792782_1155.JPEG
vgg,5,40,NaN,bicycle,bicycle,c100,5160_con_dnn_c100_bicycle_10_n02835271_12806.JPEG
vgg,5,41,NaN,airplane,airplane,c100,5161_con_dnn_c100_airplane_10_n02690373_8204.JPEG
vgg,5,42,NaN,airplane,airplane,c100,5162_con_dnn_c100_airplane_10_n02690373_5628.JPEG
vgg,5,43,NaN,airplane,airplane,c100,5163_con_dnn_c100_airplane_10_n02690373_6534.JPEG
vgg,5,44,NaN,airplane,airplane,c100,5164_con_dnn_c100_airplane_10_n02690373_15392.JPEG
vgg,5,45,NaN,airplane,airplane,c100,5165_con_dnn_c100_airplane_10_n02690373_8740.JPEG
vgg,5,46,NaN,airplane,airplane,c100,5166_con_dnn_c100_airplane_10_n02690373_7093.JPEG
vgg,5,47,NaN,airplane,airplane,c100,5167_con_dnn_c100_airplane_10_n02690373_1310.JPEG
vgg,5,48,NaN,airplane,airplane,c100,5168_con_dnn_c100_airplane_10_n02690373_17307.JPEG
vgg,5,49,NaN,airplane,airplane,c100,5169_con_dnn_c100_airplane_10_n02690373_9170.JPEG
vgg,5,50,NaN,airplane,airplane,c100,5170_con_dnn_c100_airplane_10_n02690373_7145.JPEG
vgg,5,51,NaN,clock,clock,c100,5171_con_dnn_c100_clock_10_n03196217_727.JPEG
vgg,5,52,NaN,clock,clock,c100,5172_con_dnn_c100_clock_10_n04548280_5466.JPEG
vgg,5,53,NaN,clock,clock,c100,5173_con_dnn_c100_clock_10_n04548280_8024.JPEG
vgg,5,54,NaN,clock,clock,c100,5174_con_dnn_c100_clock_10_n04548280_2989.JPEG
vgg,5,55,NaN,clock,clock,c100,5175_con_dnn_c100_clock_10_n03196217_5149.JPEG
vgg,5,56,NaN,clock,clock,c100,5176_con_dnn_c100_clock_10_n04548280_3303.JPEG
vgg,5,57,NaN,clock,clock,c100,5177_con_dnn_c100_clock_10_n03196217_8217.JPEG
vgg,5,58,NaN,clock,clock,c100,5178_con_dnn_c100_clock_10_n04548280_1245.JPEG
vgg,5,59,NaN,clock,clock,c100,5179_con_dnn_c100_clock_10_n03196217_911.JPEG
vgg,5,60,NaN,clock,clock,c100,5180_con_dnn_c100_clock_10_n04548280_4073.JPEG
vgg,5,61,NaN,oven,oven,c100,5181_con_dnn_c100_oven_10_n04111531_21366.JPEG
vgg,5,62,NaN,chair,oven,c100,5182_con_dnn_c100_oven_10_n04111531_22872.JPEG
vgg,5,63,NaN,oven,oven,c100,5183_con_dnn_c100_oven_10_n04111531_5241.JPEG
vgg,5,64,NaN,oven,oven,c100,5184_con_dnn_c100_oven_10_n04111531_9822.JPEG
vgg,5,65,NaN,oven,oven,c100,5185_con_dnn_c100_oven_10_n04111531_4146.JPEG
vgg,5,66,NaN,oven,oven,c100,5186_con_dnn_c100_oven_10_n04111531_9915.JPEG
vgg,5,67,NaN,oven,oven,c100,5187_con_dnn_c100_oven_10_n04111531_11589.JPEG
vgg,5,68,NaN,clock,oven,c100,5188_con_dnn_c100_oven_10_n04111531_121.JPEG
vgg,5,69,NaN,oven,oven,c100,5189_con_dnn_c100_oven_10_n04111531_2207.JPEG
vgg,5,70,NaN,oven,oven,c100,5190_con_dnn_c100_oven_10_n04111531_6609.JPEG
vgg,5,71,NaN,chair,chair,c100,5191_con_dnn_c100_chair_10_n02791124_5673.JPEG
vgg,5,72,NaN,chair,chair,c100,5192_con_dnn_c100_chair_10_n02791124_1770.JPEG
vgg,5,73,NaN,chair,chair,c100,5193_con_dnn_c100_chair_10_n03376595_5972.JPEG
vgg,5,74,NaN,chair,chair,c100,5194_con_dnn_c100_chair_10_n04099969_1444.JPEG
vgg,5,75,NaN,chair,chair,c100,5195_con_dnn_c100_chair_10_n02791124_2999.JPEG
vgg,5,76,NaN,chair,chair,c100,5196_con_dnn_c100_chair_10_n02791124_2369.JPEG
vgg,5,77,NaN,chair,chair,c100,5197_con_dnn_c100_chair_10_n02791124_5079.JPEG
vgg,5,78,NaN,chair,chair,c100,5198_con_dnn_c100_chair_10_n04099969_10974.JPEG
vgg,5,79,NaN,chair,chair,c100,5199_con_dnn_c100_chair_10_n04429376_8355.JPEG
vgg,5,80,NaN,chair,chair,c100,5200_con_dnn_c100_chair_10_n04429376_13452.JPEG
vgg,5,81,NaN,bear,bear,c100,5201_con_dnn_c100_bear_10_n02132136_7253.JPEG
vgg,5,82,NaN,bear,bear,c100,5202_con_dnn_c100_bear_10_n02133161_7712.JPEG
vgg,5,83,NaN,bear,bear,c100,5203_con_dnn_c100_bear_10_n02132136_2985.JPEG
vgg,5,84,NaN,bear,bear,c100,5204_con_dnn_c100_bear_10_n02134084_15558.JPEG
vgg,5,85,NaN,bear,bear,c100,5205_con_dnn_c100_bear_10_n02134084_2267.JPEG
vgg,5,86,NaN,bear,bear,c100,5206_con_dnn_c100_bear_10_n02132136_2248.JPEG
vgg,5,87,NaN,bear,bear,c100,5207_con_dnn_c100_bear_10_n02134084_13075.JPEG
vgg,5,88,NaN,bear,bear,c100,5208_con_dnn_c100_bear_10_n02132136_9515.JPEG
vgg,5,89,NaN,bear,bear,c100,5209_con_dnn_c100_bear_10_n02134084_39112.JPEG
vgg,5,90,NaN,bear,bear,c100,5210_con_dnn_c100_bear_10_n02133161_2173.JPEG
vgg,5,91,NaN,boat,boat,c100,5211_con_dnn_c100_boat_10_n03344393_8626.JPEG
vgg,5,92,NaN,boat,boat,c100,5212_con_dnn_c100_boat_10_n03344393_6606.JPEG
vgg,5,93,NaN,boat,boat,c100,5213_con_dnn_c100_boat_10_n02951358_13561.JPEG
vgg,5,94,NaN,boat,boat,c100,5214_con_dnn_c100_boat_10_n02951358_2899.JPEG
vgg,5,95,NaN,boat,boat,c100,5215_con_dnn_c100_boat_10_n04273569_11744.JPEG
vgg,5,96,NaN,boat,boat,c100,5216_con_dnn_c100_boat_10_n04273569_15356.JPEG
vgg,5,97,NaN,boat,boat,c100,5217_con_dnn_c100_boat_10_n03662601_13834.JPEG
vgg,5,98,NaN,boat,boat,c100,5218_con_dnn_c100_boat_10_n03344393_7362.JPEG
vgg,5,99,NaN,boat,boat,c100,5219_con_dnn_c100_boat_10_n03662601_1229.JPEG
vgg,5,100,NaN,boat,boat,c100,5220_con_dnn_c100_boat_10_n03344393_375.JPEG
vgg,5,101,NaN,cat,cat,c100,5221_con_dnn_c100_cat_10_n02124075_11068.JPEG
vgg,5,102,NaN,cat,cat,c100,5222_con_dnn_c100_cat_10_n02123597_11492.JPEG
vgg,5,103,NaN,cat,cat,c100,5223_con_dnn_c100_cat_10_n02123394_4096.JPEG
vgg,5,104,NaN,cat,cat,c100,5224_con_dnn_c100_cat_10_n02123159_4650.JPEG
vgg,5,105,NaN,cat,cat,c100,5225_con_dnn_c100_cat_10_n02123394_5988.JPEG
vgg,5,106,NaN,cat,cat,c100,5226_con_dnn_c100_cat_10_n02125311_21937.JPEG
vgg,5,107,NaN,cat,cat,c100,5227_con_dnn_c100_cat_10_n02123394_3516.JPEG
vgg,5,108,NaN,bottle,cat,c100,5228_con_dnn_c100_cat_10_n02124075_13436.JPEG
vgg,5,109,NaN,cat,cat,c100,5229_con_dnn_c100_cat_10_n02123159_8199.JPEG
vgg,5,110,NaN,cat,cat,c100,5230_con_dnn_c100_cat_10_n02123394_10972.JPEG
vgg,5,111,NaN,bottle,bottle,c100,5231_con_dnn_c100_bottle_10_n03937543_6343.JPEG
vgg,5,112,NaN,bottle,bottle,c100,5232_con_dnn_c100_bottle_10_n04557648_10275.JPEG
vgg,5,113,NaN,bottle,bottle,c100,5233_con_dnn_c100_bottle_10_n04579145_3302.JPEG
vgg,5,114,NaN,bottle,bottle,c100,5234_con_dnn_c100_bottle_10_n03937543_4963.JPEG
vgg,5,115,NaN,knife,bottle,c100,5235_con_dnn_c100_bottle_10_n04557648_2596.JPEG
vgg,5,116,NaN,chair,bottle,c100,5236_con_dnn_c100_bottle_10_n04557648_3603.JPEG
vgg,5,117,NaN,bottle,bottle,c100,5237_con_dnn_c100_bottle_10_n04591713_7108.JPEG
vgg,5,118,NaN,bottle,bottle,c100,5238_con_dnn_c100_bottle_10_n02823428_2918.JPEG
vgg,5,119,NaN,bottle,bottle,c100,5239_con_dnn_c100_bottle_10_n02823428_10881.JPEG
vgg,5,120,NaN,bottle,bottle,c100,5240_con_dnn_c100_bottle_10_n04557648_8444.JPEG
vgg,5,121,NaN,truck,truck,c100,5241_con_dnn_c100_truck_10_n04467665_39477.JPEG
vgg,5,122,NaN,truck,truck,c100,5242_con_dnn_c100_truck_10_n04467665_3220.JPEG
vgg,5,123,NaN,truck,truck,c100,5243_con_dnn_c100_truck_10_n03796401_4211.JPEG
vgg,5,124,NaN,truck,truck,c100,5244_con_dnn_c100_truck_10_n03417042_2374.JPEG
vgg,5,125,NaN,truck,truck,c100,5245_con_dnn_c100_truck_10_n03796401_599.JPEG
vgg,5,126,NaN,truck,truck,c100,5246_con_dnn_c100_truck_10_n03796401_13490.JPEG
vgg,5,127,NaN,truck,truck,c100,5247_con_dnn_c100_truck_10_n04467665_31971.JPEG
vgg,5,128,NaN,truck,truck,c100,5248_con_dnn_c100_truck_10_n03796401_19114.JPEG
vgg,5,129,NaN,truck,truck,c100,5249_con_dnn_c100_truck_10_n04467665_34932.JPEG
vgg,5,130,NaN,truck,truck,c100,5250_con_dnn_c100_truck_10_n04467665_10169.JPEG
vgg,5,131,NaN,truck,car,c100,5251_con_dnn_c100_car_10_n02814533_85928.JPEG
vgg,5,132,NaN,car,car,c100,5252_con_dnn_c100_car_10_n03100240_21737.JPEG
vgg,5,133,NaN,car,car,c100,5253_con_dnn_c100_car_10_n02814533_21600.JPEG
vgg,5,134,NaN,car,car,c100,5254_con_dnn_c100_car_10_n03100240_4648.JPEG
vgg,5,135,NaN,car,car,c100,5255_con_dnn_c100_car_10_n03100240_1390.JPEG
vgg,5,136,NaN,car,car,c100,5256_con_dnn_c100_car_10_n04285008_1619.JPEG
vgg,5,137,NaN,car,car,c100,5257_con_dnn_c100_car_10_n02814533_47406.JPEG
vgg,5,138,NaN,car,car,c100,5258_con_dnn_c100_car_10_n02814533_43179.JPEG
vgg,5,139,NaN,car,car,c100,5259_con_dnn_c100_car_10_n04285008_2537.JPEG
vgg,5,140,NaN,car,car,c100,5260_con_dnn_c100_car_10_n04285008_8157.JPEG
vgg,5,141,NaN,bird,bird,c100,5261_con_dnn_c100_bird_10_n02056570_6185.JPEG
vgg,5,142,NaN,bird,bird,c100,5262_con_dnn_c100_bird_10_n02007558_11196.JPEG
vgg,5,143,NaN,bird,bird,c100,5263_con_dnn_c100_bird_10_n02009229_12125.JPEG
vgg,5,144,NaN,bird,bird,c100,5264_con_dnn_c100_bird_10_n02013706_7395.JPEG
vgg,5,145,NaN,bird,bird,c100,5265_con_dnn_c100_bird_10_n01860187_510.JPEG
vgg,5,146,NaN,clock,bird,c100,5266_con_dnn_c100_bird_10_n01818515_7621.JPEG
vgg,5,147,NaN,bird,bird,c100,5267_con_dnn_c100_bird_10_n01843383_8774.JPEG
vgg,5,148,NaN,bird,bird,c100,5268_con_dnn_c100_bird_10_n02017213_2673.JPEG
vgg,5,149,NaN,bird,bird,c100,5269_con_dnn_c100_bird_10_n02009912_3242.JPEG
vgg,5,150,NaN,bird,bird,c100,5270_con_dnn_c100_bird_10_n02002556_2441.JPEG
vgg,5,151,NaN,dog,dog,c100,5271_con_dnn_c100_dog_10_n02100735_4578.JPEG
vgg,5,152,NaN,dog,dog,c100,5272_con_dnn_c100_dog_10_n02085936_5479.JPEG
vgg,5,153,NaN,dog,dog,c100,5273_con_dnn_c100_dog_10_n02105162_3353.JPEG
vgg,5,154,NaN,dog,dog,c100,5274_con_dnn_c100_dog_10_n02096051_5043.JPEG
vgg,5,155,NaN,dog,dog,c100,5275_con_dnn_c100_dog_10_n02113624_2816.JPEG
vgg,5,156,NaN,bear,dog,c100,5276_con_dnn_c100_dog_10_n02107683_4294.JPEG
vgg,5,157,NaN,dog,dog,c100,5277_con_dnn_c100_dog_10_n02087394_8782.JPEG
vgg,5,158,NaN,dog,dog,c100,5278_con_dnn_c100_dog_10_n02093991_1669.JPEG
vgg,5,159,NaN,dog,dog,c100,5279_con_dnn_c100_dog_10_n02100877_8357.JPEG
vgg,5,160,NaN,dog,dog,c100,5280_con_dnn_c100_dog_10_n02090379_2289.JPEG
vgg,5,161,NaN,dog,knife,c50,5281_con_dnn_c50_knife_10_n03041632_44212.JPEG
vgg,5,162,NaN,bottle,knife,c50,5282_con_dnn_c50_knife_10_n03041632_29801.JPEG
vgg,5,163,NaN,knife,knife,c50,5283_con_dnn_c50_knife_10_n03041632_49513.JPEG
vgg,5,164,NaN,knife,knife,c50,5284_con_dnn_c50_knife_10_n03041632_45338.JPEG
vgg,5,165,NaN,knife,knife,c50,5285_con_dnn_c50_knife_10_n03041632_43975.JPEG
vgg,5,166,NaN,knife,knife,c50,5286_con_dnn_c50_knife_10_n03041632_10109.JPEG
vgg,5,167,NaN,knife,knife,c50,5287_con_dnn_c50_knife_10_n03041632_2058.JPEG
vgg,5,168,NaN,knife,knife,c50,5288_con_dnn_c50_knife_10_n03041632_35116.JPEG
vgg,5,169,NaN,knife,knife,c50,5289_con_dnn_c50_knife_10_n03041632_27963.JPEG
vgg,5,170,NaN,chair,knife,c50,5290_con_dnn_c50_knife_10_n03041632_14817.JPEG
vgg,5,171,NaN,keyboard,keyboard,c50,5291_con_dnn_c50_keyboard_10_n04505470_578.JPEG
vgg,5,172,NaN,keyboard,keyboard,c50,5292_con_dnn_c50_keyboard_10_n03085013_22665.JPEG
vgg,5,173,NaN,keyboard,keyboard,c50,5293_con_dnn_c50_keyboard_10_n03085013_19376.JPEG
vgg,5,174,NaN,keyboard,keyboard,c50,5294_con_dnn_c50_keyboard_10_n03085013_23323.JPEG
vgg,5,175,NaN,keyboard,keyboard,c50,5295_con_dnn_c50_keyboard_10_n04505470_209.JPEG
vgg,5,176,NaN,keyboard,keyboard,c50,5296_con_dnn_c50_keyboard_10_n03085013_4600.JPEG
vgg,5,177,NaN,keyboard,keyboard,c50,5297_con_dnn_c50_keyboard_10_n03085013_22700.JPEG
vgg,5,178,NaN,keyboard,keyboard,c50,5298_con_dnn_c50_keyboard_10_n04505470_7686.JPEG
vgg,5,179,NaN,keyboard,keyboard,c50,5299_con_dnn_c50_keyboard_10_n04505470_4827.JPEG
vgg,5,180,NaN,keyboard,keyboard,c50,5300_con_dnn_c50_keyboard_10_n04505470_1415.JPEG
vgg,5,181,NaN,elephant,elephant,c50,5301_con_dnn_c50_elephant_10_n02504458_2135.JPEG
vgg,5,182,NaN,elephant,elephant,c50,5302_con_dnn_c50_elephant_10_n02504458_4011.JPEG
vgg,5,183,NaN,elephant,elephant,c50,5303_con_dnn_c50_elephant_10_n02504013_9144.JPEG
vgg,5,184,NaN,elephant,elephant,c50,5304_con_dnn_c50_elephant_10_n02504458_10123.JPEG
vgg,5,185,NaN,elephant,elephant,c50,5305_con_dnn_c50_elephant_10_n02504013_22508.JPEG
vgg,5,186,NaN,elephant,elephant,c50,5306_con_dnn_c50_elephant_10_n02504013_2032.JPEG
vgg,5,187,NaN,elephant,elephant,c50,5307_con_dnn_c50_elephant_10_n02504458_1085.JPEG
vgg,5,188,NaN,elephant,elephant,c50,5308_con_dnn_c50_elephant_10_n02504458_1327.JPEG
vgg,5,189,NaN,elephant,elephant,c50,5309_con_dnn_c50_elephant_10_n02504458_6993.JPEG
vgg,5,190,NaN,elephant,elephant,c50,5310_con_dnn_c50_elephant_10_n02504458_9237.JPEG
vgg,5,191,NaN,bicycle,bicycle,c50,5311_con_dnn_c50_bicycle_10_n03792782_59404.JPEG
vgg,5,192,NaN,bicycle,bicycle,c50,5312_con_dnn_c50_bicycle_10_n02835271_262.JPEG
vgg,5,193,NaN,bicycle,bicycle,c50,5313_con_dnn_c50_bicycle_10_n03792782_12752.JPEG
vgg,5,194,NaN,bicycle,bicycle,c50,5314_con_dnn_c50_bicycle_10_n02835271_26158.JPEG
vgg,5,195,NaN,bicycle,bicycle,c50,5315_con_dnn_c50_bicycle_10_n02835271_9672.JPEG
vgg,5,196,NaN,bicycle,bicycle,c50,5316_con_dnn_c50_bicycle_10_n02835271_23237.JPEG
vgg,5,197,NaN,truck,bicycle,c50,5317_con_dnn_c50_bicycle_10_n02835271_4732.JPEG
vgg,5,198,NaN,bicycle,bicycle,c50,5318_con_dnn_c50_bicycle_10_n02835271_6497.JPEG
vgg,5,199,NaN,bicycle,bicycle,c50,5319_con_dnn_c50_bicycle_10_n03792782_18320.JPEG
vgg,5,200,NaN,bicycle,bicycle,c50,5320_con_dnn_c50_bicycle_10_n03792782_16568.JPEG
vgg,5,201,NaN,airplane,airplane,c50,5321_con_dnn_c50_airplane_10_n02690373_4945.JPEG
vgg,5,202,NaN,boat,airplane,c50,5322_con_dnn_c50_airplane_10_n02690373_111.JPEG
vgg,5,203,NaN,airplane,airplane,c50,5323_con_dnn_c50_airplane_10_n02690373_4964.JPEG
vgg,5,204,NaN,airplane,airplane,c50,5324_con_dnn_c50_airplane_10_n02690373_6363.JPEG
vgg,5,205,NaN,airplane,airplane,c50,5325_con_dnn_c50_airplane_10_n02690373_13317.JPEG
vgg,5,206,NaN,airplane,airplane,c50,5326_con_dnn_c50_airplane_10_n02690373_9425.JPEG
vgg,5,207,NaN,airplane,airplane,c50,5327_con_dnn_c50_airplane_10_n02690373_744.JPEG
vgg,5,208,NaN,airplane,airplane,c50,5328_con_dnn_c50_airplane_10_n02690373_12044.JPEG
vgg,5,209,NaN,airplane,airplane,c50,5329_con_dnn_c50_airplane_10_n02690373_1295.JPEG
vgg,5,210,NaN,airplane,airplane,c50,5330_con_dnn_c50_airplane_10_n02690373_1019.JPEG
vgg,5,211,NaN,clock,clock,c50,5331_con_dnn_c50_clock_10_n02708093_6591.JPEG
vgg,5,212,NaN,bottle,clock,c50,5332_con_dnn_c50_clock_10_n03196217_8638.JPEG
vgg,5,213,NaN,clock,clock,c50,5333_con_dnn_c50_clock_10_n02708093_1557.JPEG
vgg,5,214,NaN,clock,clock,c50,5334_con_dnn_c50_clock_10_n04548280_8649.JPEG
vgg,5,215,NaN,clock,clock,c50,5335_con_dnn_c50_clock_10_n02708093_2867.JPEG
vgg,5,216,NaN,oven,clock,c50,5336_con_dnn_c50_clock_10_n03196217_3232.JPEG
vgg,5,217,NaN,clock,clock,c50,5337_con_dnn_c50_clock_10_n04548280_1438.JPEG
vgg,5,218,NaN,clock,clock,c50,5338_con_dnn_c50_clock_10_n02708093_2030.JPEG
vgg,5,219,NaN,clock,clock,c50,5339_con_dnn_c50_clock_10_n04548280_9196.JPEG
vgg,5,220,NaN,clock,clock,c50,5340_con_dnn_c50_clock_10_n04548280_3531.JPEG
vgg,5,221,NaN,oven,oven,c50,5341_con_dnn_c50_oven_10_n04111531_5204.JPEG
vgg,5,222,NaN,oven,oven,c50,5342_con_dnn_c50_oven_10_n04111531_11781.JPEG
vgg,5,223,NaN,oven,oven,c50,5343_con_dnn_c50_oven_10_n04111531_4959.JPEG
vgg,5,224,NaN,oven,oven,c50,5344_con_dnn_c50_oven_10_n04111531_2677.JPEG
vgg,5,225,NaN,oven,oven,c50,5345_con_dnn_c50_oven_10_n04111531_4346.JPEG
vgg,5,226,NaN,oven,oven,c50,5346_con_dnn_c50_oven_10_n04111531_2943.JPEG
vgg,5,227,NaN,oven,oven,c50,5347_con_dnn_c50_oven_10_n04111531_2872.JPEG
vgg,5,228,NaN,oven,oven,c50,5348_con_dnn_c50_oven_10_n04111531_22923.JPEG
vgg,5,229,NaN,oven,oven,c50,5349_con_dnn_c50_oven_10_n04111531_5967.JPEG
vgg,5,230,NaN,truck,oven,c50,5350_con_dnn_c50_oven_10_n04111531_6923.JPEG
vgg,5,231,NaN,chair,chair,c50,5351_con_dnn_c50_chair_10_n03376595_3177.JPEG
vgg,5,232,NaN,chair,chair,c50,5352_con_dnn_c50_chair_10_n03376595_9268.JPEG
vgg,5,233,NaN,chair,chair,c50,5353_con_dnn_c50_chair_10_n02791124_15459.JPEG
vgg,5,234,NaN,chair,chair,c50,5354_con_dnn_c50_chair_10_n03376595_3223.JPEG
vgg,5,235,NaN,chair,chair,c50,5355_con_dnn_c50_chair_10_n03376595_6683.JPEG
vgg,5,236,NaN,chair,chair,c50,5356_con_dnn_c50_chair_10_n04429376_17816.JPEG
vgg,5,237,NaN,chair,chair,c50,5357_con_dnn_c50_chair_10_n03376595_7262.JPEG
vgg,5,238,NaN,chair,chair,c50,5358_con_dnn_c50_chair_10_n02791124_15457.JPEG
vgg,5,239,NaN,chair,chair,c50,5359_con_dnn_c50_chair_10_n02791124_6843.JPEG
vgg,5,240,NaN,truck,chair,c50,5360_con_dnn_c50_chair_10_n04429376_4941.JPEG
vgg,5,241,NaN,bear,bear,c50,5361_con_dnn_c50_bear_10_n02133161_15299.JPEG
vgg,5,242,NaN,bear,bear,c50,5362_con_dnn_c50_bear_10_n02134418_5777.JPEG
vgg,5,243,NaN,bear,bear,c50,5363_con_dnn_c50_bear_10_n02134418_4446.JPEG
vgg,5,244,NaN,bear,bear,c50,5364_con_dnn_c50_bear_10_n02134418_244.JPEG
vgg,5,245,NaN,bear,bear,c50,5365_con_dnn_c50_bear_10_n02133161_1656.JPEG
vgg,5,246,NaN,bear,bear,c50,5366_con_dnn_c50_bear_10_n02134084_23164.JPEG
vgg,5,247,NaN,bear,bear,c50,5367_con_dnn_c50_bear_10_n02134418_3245.JPEG
vgg,5,248,NaN,bear,bear,c50,5368_con_dnn_c50_bear_10_n02134084_10457.JPEG
vgg,5,249,NaN,bear,bear,c50,5369_con_dnn_c50_bear_10_n02133161_1032.JPEG
vgg,5,250,NaN,bear,bear,c50,5370_con_dnn_c50_bear_10_n02134084_27.JPEG
vgg,5,251,NaN,boat,boat,c50,5371_con_dnn_c50_boat_10_n03344393_1115.JPEG
vgg,5,252,NaN,boat,boat,c50,5372_con_dnn_c50_boat_10_n03344393_4063.JPEG
vgg,5,253,NaN,boat,boat,c50,5373_con_dnn_c50_boat_10_n02951358_34893.JPEG
vgg,5,254,NaN,car,boat,c50,5374_con_dnn_c50_boat_10_n02951358_11450.JPEG
vgg,5,255,NaN,boat,boat,c50,5375_con_dnn_c50_boat_10_n02951358_34310.JPEG
vgg,5,256,NaN,boat,boat,c50,5376_con_dnn_c50_boat_10_n03662601_25492.JPEG
vgg,5,257,NaN,boat,boat,c50,5377_con_dnn_c50_boat_10_n04273569_9873.JPEG
vgg,5,258,NaN,boat,boat,c50,5378_con_dnn_c50_boat_10_n04612504_2520.JPEG
vgg,5,259,NaN,boat,boat,c50,5379_con_dnn_c50_boat_10_n03662601_21426.JPEG
vgg,5,260,NaN,boat,boat,c50,5380_con_dnn_c50_boat_10_n02951358_20960.JPEG
vgg,5,261,NaN,cat,cat,c50,5381_con_dnn_c50_cat_10_n02124075_6947.JPEG
vgg,5,262,NaN,cat,cat,c50,5382_con_dnn_c50_cat_10_n02123394_1845.JPEG
vgg,5,263,NaN,cat,cat,c50,5383_con_dnn_c50_cat_10_n02123159_2835.JPEG
vgg,5,264,NaN,cat,cat,c50,5384_con_dnn_c50_cat_10_n02123597_9663.JPEG
vgg,5,265,NaN,cat,cat,c50,5385_con_dnn_c50_cat_10_n02123597_6693.JPEG
vgg,5,266,NaN,cat,cat,c50,5386_con_dnn_c50_cat_10_n02125311_28469.JPEG
vgg,5,267,NaN,cat,cat,c50,5387_con_dnn_c50_cat_10_n02123394_4125.JPEG
vgg,5,268,NaN,cat,cat,c50,5388_con_dnn_c50_cat_10_n02123394_6846.JPEG
vgg,5,269,NaN,cat,cat,c50,5389_con_dnn_c50_cat_10_n02123394_825.JPEG
vgg,5,270,NaN,cat,cat,c50,5390_con_dnn_c50_cat_10_n02123394_1379.JPEG
vgg,5,271,NaN,bottle,bottle,c50,5391_con_dnn_c50_bottle_10_n02823428_4747.JPEG
vgg,5,272,NaN,bottle,bottle,c50,5392_con_dnn_c50_bottle_10_n04560804_29208.JPEG
vgg,5,273,NaN,bottle,bottle,c50,5393_con_dnn_c50_bottle_10_n03937543_4678.JPEG
vgg,5,274,NaN,bottle,bottle,c50,5394_con_dnn_c50_bottle_10_n03937543_1736.JPEG
vgg,5,275,NaN,bottle,bottle,c50,5395_con_dnn_c50_bottle_10_n03983396_2149.JPEG
vgg,5,276,NaN,bottle,bottle,c50,5396_con_dnn_c50_bottle_10_n04579145_1853.JPEG
vgg,5,277,NaN,bottle,bottle,c50,5397_con_dnn_c50_bottle_10_n03937543_2440.JPEG
vgg,5,278,NaN,bottle,bottle,c50,5398_con_dnn_c50_bottle_10_n02823428_2403.JPEG
vgg,5,279,NaN,bottle,bottle,c50,5399_con_dnn_c50_bottle_10_n04579145_141.JPEG
vgg,5,280,NaN,bottle,bottle,c50,5400_con_dnn_c50_bottle_10_n04579145_6697.JPEG
vgg,5,281,NaN,truck,truck,c50,5401_con_dnn_c50_truck_10_n03417042_27850.JPEG
vgg,5,282,NaN,truck,truck,c50,5402_con_dnn_c50_truck_10_n03796401_23603.JPEG
vgg,5,283,NaN,truck,truck,c50,5403_con_dnn_c50_truck_10_n03417042_1376.JPEG
vgg,5,284,NaN,truck,truck,c50,5404_con_dnn_c50_truck_10_n03417042_27602.JPEG
vgg,5,285,NaN,truck,truck,c50,5405_con_dnn_c50_truck_10_n04467665_37833.JPEG
vgg,5,286,NaN,truck,truck,c50,5406_con_dnn_c50_truck_10_n04467665_69970.JPEG
vgg,5,287,NaN,truck,truck,c50,5407_con_dnn_c50_truck_10_n04467665_670.JPEG
vgg,5,288,NaN,truck,truck,c50,5408_con_dnn_c50_truck_10_n04467665_23054.JPEG
vgg,5,289,NaN,truck,truck,c50,5409_con_dnn_c50_truck_10_n03417042_3482.JPEG
vgg,5,290,NaN,truck,truck,c50,5410_con_dnn_c50_truck_10_n04467665_906.JPEG
vgg,5,291,NaN,car,car,c50,5411_con_dnn_c50_car_10_n04285008_13094.JPEG
vgg,5,292,NaN,car,car,c50,5412_con_dnn_c50_car_10_n03100240_3936.JPEG
vgg,5,293,NaN,car,car,c50,5413_con_dnn_c50_car_10_n04285008_7826.JPEG
vgg,5,294,NaN,car,car,c50,5414_con_dnn_c50_car_10_n02814533_2417.JPEG
vgg,5,295,NaN,truck,car,c50,5415_con_dnn_c50_car_10_n03100240_740.JPEG
vgg,5,296,NaN,car,car,c50,5416_con_dnn_c50_car_10_n04285008_8093.JPEG
vgg,5,297,NaN,car,car,c50,5417_con_dnn_c50_car_10_n04285008_13629.JPEG
vgg,5,298,NaN,car,car,c50,5418_con_dnn_c50_car_10_n02814533_18429.JPEG
vgg,5,299,NaN,car,car,c50,5419_con_dnn_c50_car_10_n04285008_5838.JPEG
vgg,5,300,NaN,car,car,c50,5420_con_dnn_c50_car_10_n04285008_11451.JPEG
vgg,5,301,NaN,bird,bird,c50,5421_con_dnn_c50_bird_10_n01843383_303.JPEG
vgg,5,302,NaN,bird,bird,c50,5422_con_dnn_c50_bird_10_n01582220_6783.JPEG
vgg,5,303,NaN,bird,bird,c50,5423_con_dnn_c50_bird_10_n02009229_5655.JPEG
vgg,5,304,NaN,bird,bird,c50,5424_con_dnn_c50_bird_10_n02002556_3298.JPEG
vgg,5,305,NaN,bird,bird,c50,5425_con_dnn_c50_bird_10_n01622779_1712.JPEG
vgg,5,306,NaN,bird,bird,c50,5426_con_dnn_c50_bird_10_n01820546_5021.JPEG
vgg,5,307,NaN,bird,bird,c50,5427_con_dnn_c50_bird_10_n01797886_20022.JPEG
vgg,5,308,NaN,bird,bird,c50,5428_con_dnn_c50_bird_10_n02037110_3779.JPEG
vgg,5,309,NaN,bird,bird,c50,5429_con_dnn_c50_bird_10_n01531178_20485.JPEG
vgg,5,310,NaN,bird,bird,c50,5430_con_dnn_c50_bird_10_n02002556_153.JPEG
vgg,5,311,NaN,dog,dog,c50,5431_con_dnn_c50_dog_10_n02094433_10618.JPEG
vgg,5,312,NaN,dog,dog,c50,5432_con_dnn_c50_dog_10_n02107312_1945.JPEG
vgg,5,313,NaN,dog,dog,c50,5433_con_dnn_c50_dog_10_n02093428_9016.JPEG
vgg,5,314,NaN,dog,dog,c50,5434_con_dnn_c50_dog_10_n02108422_553.JPEG
vgg,5,315,NaN,dog,dog,c50,5435_con_dnn_c50_dog_10_n02109525_3294.JPEG
vgg,5,316,NaN,dog,dog,c50,5436_con_dnn_c50_dog_10_n02097474_11401.JPEG
vgg,5,317,NaN,dog,dog,c50,5437_con_dnn_c50_dog_10_n02102973_6724.JPEG
vgg,5,318,NaN,dog,dog,c50,5438_con_dnn_c50_dog_10_n02105162_6323.JPEG
vgg,5,319,NaN,dog,dog,c50,5439_con_dnn_c50_dog_10_n02091467_12812.JPEG
vgg,5,320,NaN,dog,dog,c50,5440_con_dnn_c50_dog_10_n02101388_9771.JPEG
vgg,5,321,NaN,knife,knife,c30,5441_con_dnn_c30_knife_10_n03041632_19620.JPEG
vgg,5,322,NaN,knife,knife,c30,5442_con_dnn_c30_knife_10_n03041632_45569.JPEG
vgg,5,323,NaN,knife,knife,c30,5443_con_dnn_c30_knife_10_n03041632_14766.JPEG
vgg,5,324,NaN,knife,knife,c30,5444_con_dnn_c30_knife_10_n03041632_25772.JPEG
vgg,5,325,NaN,knife,knife,c30,5445_con_dnn_c30_knife_10_n03041632_22480.JPEG
vgg,5,326,NaN,bottle,knife,c30,5446_con_dnn_c30_knife_10_n03041632_87339.JPEG
vgg,5,327,NaN,knife,knife,c30,5447_con_dnn_c30_knife_10_n03041632_18995.JPEG
vgg,5,328,NaN,bottle,knife,c30,5448_con_dnn_c30_knife_10_n03041632_26340.JPEG
vgg,5,329,NaN,knife,knife,c30,5449_con_dnn_c30_knife_10_n03041632_44269.JPEG
vgg,5,330,NaN,dog,knife,c30,5450_con_dnn_c30_knife_10_n03041632_9256.JPEG
vgg,5,331,NaN,keyboard,keyboard,c30,5451_con_dnn_c30_keyboard_10_n03085013_28083.JPEG
vgg,5,332,NaN,keyboard,keyboard,c30,5452_con_dnn_c30_keyboard_10_n04505470_2620.JPEG
vgg,5,333,NaN,keyboard,keyboard,c30,5453_con_dnn_c30_keyboard_10_n04505470_4061.JPEG
vgg,5,334,NaN,keyboard,keyboard,c30,5454_con_dnn_c30_keyboard_10_n04505470_4374.JPEG
vgg,5,335,NaN,keyboard,keyboard,c30,5455_con_dnn_c30_keyboard_10_n04505470_3961.JPEG
vgg,5,336,NaN,keyboard,keyboard,c30,5456_con_dnn_c30_keyboard_10_n03085013_3795.JPEG
vgg,5,337,NaN,keyboard,keyboard,c30,5457_con_dnn_c30_keyboard_10_n03085013_23705.JPEG
vgg,5,338,NaN,keyboard,keyboard,c30,5458_con_dnn_c30_keyboard_10_n04505470_3089.JPEG
vgg,5,339,NaN,keyboard,keyboard,c30,5459_con_dnn_c30_keyboard_10_n03085013_2640.JPEG
vgg,5,340,NaN,keyboard,keyboard,c30,5460_con_dnn_c30_keyboard_10_n03085013_21282.JPEG
vgg,5,341,NaN,elephant,elephant,c30,5461_con_dnn_c30_elephant_10_n02504013_1784.JPEG
vgg,5,342,NaN,elephant,elephant,c30,5462_con_dnn_c30_elephant_10_n02504013_9809.JPEG
vgg,5,343,NaN,elephant,elephant,c30,5463_con_dnn_c30_elephant_10_n02504013_3172.JPEG
vgg,5,344,NaN,bird,elephant,c30,5464_con_dnn_c30_elephant_10_n02504458_5050.JPEG
vgg,5,345,NaN,elephant,elephant,c30,5465_con_dnn_c30_elephant_10_n02504013_3843.JPEG
vgg,5,346,NaN,elephant,elephant,c30,5466_con_dnn_c30_elephant_10_n02504013_4514.JPEG
vgg,5,347,NaN,elephant,elephant,c30,5467_con_dnn_c30_elephant_10_n02504013_1604.JPEG
vgg,5,348,NaN,boat,elephant,c30,5468_con_dnn_c30_elephant_10_n02504458_1348.JPEG
vgg,5,349,NaN,elephant,elephant,c30,5469_con_dnn_c30_elephant_10_n02504013_10764.JPEG
vgg,5,350,NaN,elephant,elephant,c30,5470_con_dnn_c30_elephant_10_n02504458_4633.JPEG
vgg,5,351,NaN,bottle,bicycle,c30,5471_con_dnn_c30_bicycle_10_n03792782_14199.JPEG
vgg,5,352,NaN,bicycle,bicycle,c30,5472_con_dnn_c30_bicycle_10_n03792782_17673.JPEG
vgg,5,353,NaN,bicycle,bicycle,c30,5473_con_dnn_c30_bicycle_10_n02835271_2393.JPEG
vgg,5,354,NaN,bicycle,bicycle,c30,5474_con_dnn_c30_bicycle_10_n03792782_4249.JPEG
vgg,5,355,NaN,bicycle,bicycle,c30,5475_con_dnn_c30_bicycle_10_n02835271_3767.JPEG
vgg,5,356,NaN,bicycle,bicycle,c30,5476_con_dnn_c30_bicycle_10_n02835271_7362.JPEG
vgg,5,357,NaN,bicycle,bicycle,c30,5477_con_dnn_c30_bicycle_10_n03792782_14230.JPEG
vgg,5,358,NaN,bicycle,bicycle,c30,5478_con_dnn_c30_bicycle_10_n03792782_5959.JPEG
vgg,5,359,NaN,bicycle,bicycle,c30,5479_con_dnn_c30_bicycle_10_n02835271_42981.JPEG
vgg,5,360,NaN,bicycle,bicycle,c30,5480_con_dnn_c30_bicycle_10_n02835271_14909.JPEG
vgg,5,361,NaN,airplane,airplane,c30,5481_con_dnn_c30_airplane_10_n02690373_13591.JPEG
vgg,5,362,NaN,airplane,airplane,c30,5482_con_dnn_c30_airplane_10_n02690373_5475.JPEG
vgg,5,363,NaN,airplane,airplane,c30,5483_con_dnn_c30_airplane_10_n02690373_2941.JPEG
vgg,5,364,NaN,airplane,airplane,c30,5484_con_dnn_c30_airplane_10_n02690373_2952.JPEG
vgg,5,365,NaN,airplane,airplane,c30,5485_con_dnn_c30_airplane_10_n02690373_19131.JPEG
vgg,5,366,NaN,airplane,airplane,c30,5486_con_dnn_c30_airplane_10_n02690373_17044.JPEG
vgg,5,367,NaN,airplane,airplane,c30,5487_con_dnn_c30_airplane_10_n02690373_5126.JPEG
vgg,5,368,NaN,airplane,airplane,c30,5488_con_dnn_c30_airplane_10_n02690373_5496.JPEG
vgg,5,369,NaN,airplane,airplane,c30,5489_con_dnn_c30_airplane_10_n02690373_1469.JPEG
vgg,5,370,NaN,airplane,airplane,c30,5490_con_dnn_c30_airplane_10_n02690373_10926.JPEG
vgg,5,371,NaN,clock,clock,c30,5491_con_dnn_c30_clock_10_n04548280_4743.JPEG
vgg,5,372,NaN,clock,clock,c30,5492_con_dnn_c30_clock_10_n02708093_5127.JPEG
vgg,5,373,NaN,knife,clock,c30,5493_con_dnn_c30_clock_10_n02708093_1209.JPEG
vgg,5,374,NaN,clock,clock,c30,5494_con_dnn_c30_clock_10_n03196217_2632.JPEG
vgg,5,375,NaN,clock,clock,c30,5495_con_dnn_c30_clock_10_n02708093_2717.JPEG
vgg,5,376,NaN,clock,clock,c30,5496_con_dnn_c30_clock_10_n04548280_494.JPEG
vgg,5,377,NaN,clock,clock,c30,5497_con_dnn_c30_clock_10_n04548280_1039.JPEG
vgg,5,378,NaN,clock,clock,c30,5498_con_dnn_c30_clock_10_n02708093_842.JPEG
vgg,5,379,NaN,clock,clock,c30,5499_con_dnn_c30_clock_10_n03196217_4254.JPEG
vgg,5,380,NaN,clock,clock,c30,5500_con_dnn_c30_clock_10_n02708093_7143.JPEG
vgg,5,381,NaN,dog,oven,c30,5501_con_dnn_c30_oven_10_n04111531_4809.JPEG
vgg,5,382,NaN,oven,oven,c30,5502_con_dnn_c30_oven_10_n04111531_10749.JPEG
vgg,5,383,NaN,bottle,oven,c30,5503_con_dnn_c30_oven_10_n04111531_5171.JPEG
vgg,5,384,NaN,oven,oven,c30,5504_con_dnn_c30_oven_10_n04111531_21351.JPEG
vgg,5,385,NaN,bottle,oven,c30,5505_con_dnn_c30_oven_10_n04111531_3181.JPEG
vgg,5,386,NaN,oven,oven,c30,5506_con_dnn_c30_oven_10_n04111531_2371.JPEG
vgg,5,387,NaN,oven,oven,c30,5507_con_dnn_c30_oven_10_n04111531_6346.JPEG
vgg,5,388,NaN,oven,oven,c30,5508_con_dnn_c30_oven_10_n04111531_11634.JPEG
vgg,5,389,NaN,bottle,oven,c30,5509_con_dnn_c30_oven_10_n04111531_857.JPEG
vgg,5,390,NaN,oven,oven,c30,5510_con_dnn_c30_oven_10_n04111531_21931.JPEG
vgg,5,391,NaN,chair,chair,c30,5511_con_dnn_c30_chair_10_n02791124_269.JPEG
vgg,5,392,NaN,chair,chair,c30,5512_con_dnn_c30_chair_10_n04099969_22160.JPEG
vgg,5,393,NaN,chair,chair,c30,5513_con_dnn_c30_chair_10_n03376595_9667.JPEG
vgg,5,394,NaN,chair,chair,c30,5514_con_dnn_c30_chair_10_n04099969_6294.JPEG
vgg,5,395,NaN,chair,chair,c30,5515_con_dnn_c30_chair_10_n02791124_6863.JPEG
vgg,5,396,NaN,chair,chair,c30,5516_con_dnn_c30_chair_10_n04099969_22555.JPEG
vgg,5,397,NaN,clock,chair,c30,5517_con_dnn_c30_chair_10_n04429376_58604.JPEG
vgg,5,398,NaN,chair,chair,c30,5518_con_dnn_c30_chair_10_n02791124_4287.JPEG
vgg,5,399,NaN,chair,chair,c30,5519_con_dnn_c30_chair_10_n03376595_9650.JPEG
vgg,5,400,NaN,chair,chair,c30,5520_con_dnn_c30_chair_10_n04099969_857.JPEG
vgg,5,401,NaN,bear,bear,c30,5521_con_dnn_c30_bear_10_n02133161_11351.JPEG
vgg,5,402,NaN,bear,bear,c30,5522_con_dnn_c30_bear_10_n02134418_4942.JPEG
vgg,5,403,NaN,bear,bear,c30,5523_con_dnn_c30_bear_10_n02132136_24194.JPEG
vgg,5,404,NaN,dog,bear,c30,5524_con_dnn_c30_bear_10_n02133161_7157.JPEG
vgg,5,405,NaN,bear,bear,c30,5525_con_dnn_c30_bear_10_n02134084_2376.JPEG
vgg,5,406,NaN,dog,bear,c30,5526_con_dnn_c30_bear_10_n02133161_3232.JPEG
vgg,5,407,NaN,bear,bear,c30,5527_con_dnn_c30_bear_10_n02134084_9722.JPEG
vgg,5,408,NaN,dog,bear,c30,5528_con_dnn_c30_bear_10_n02134418_1814.JPEG
vgg,5,409,NaN,bear,bear,c30,5529_con_dnn_c30_bear_10_n02134084_2900.JPEG
vgg,5,410,NaN,bear,bear,c30,5530_con_dnn_c30_bear_10_n02133161_4305.JPEG
vgg,5,411,NaN,boat,boat,c30,5531_con_dnn_c30_boat_10_n04273569_2886.JPEG
vgg,5,412,NaN,boat,boat,c30,5532_con_dnn_c30_boat_10_n03662601_5003.JPEG
vgg,5,413,NaN,boat,boat,c30,5533_con_dnn_c30_boat_10_n03344393_10748.JPEG
vgg,5,414,NaN,boat,boat,c30,5534_con_dnn_c30_boat_10_n02951358_10313.JPEG
vgg,5,415,NaN,boat,boat,c30,5535_con_dnn_c30_boat_10_n04612504_4210.JPEG
vgg,5,416,NaN,boat,boat,c30,5536_con_dnn_c30_boat_10_n04273569_8299.JPEG
vgg,5,417,NaN,boat,boat,c30,5537_con_dnn_c30_boat_10_n03344393_5806.JPEG
vgg,5,418,NaN,boat,boat,c30,5538_con_dnn_c30_boat_10_n02951358_1878.JPEG
vgg,5,419,NaN,boat,boat,c30,5539_con_dnn_c30_boat_10_n03662601_7625.JPEG
vgg,5,420,NaN,boat,boat,c30,5540_con_dnn_c30_boat_10_n02951358_5031.JPEG
vgg,5,421,NaN,cat,cat,c30,5541_con_dnn_c30_cat_10_n02123597_8247.JPEG
vgg,5,422,NaN,cat,cat,c30,5542_con_dnn_c30_cat_10_n02123394_2192.JPEG
vgg,5,423,NaN,cat,cat,c30,5543_con_dnn_c30_cat_10_n02123159_2618.JPEG
vgg,5,424,NaN,cat,cat,c30,5544_con_dnn_c30_cat_10_n02123597_1260.JPEG
vgg,5,425,NaN,cat,cat,c30,5545_con_dnn_c30_cat_10_n02123597_6996.JPEG
vgg,5,426,NaN,cat,cat,c30,5546_con_dnn_c30_cat_10_n02123159_2022.JPEG
vgg,5,427,NaN,cat,cat,c30,5547_con_dnn_c30_cat_10_n02123159_4144.JPEG
vgg,5,428,NaN,cat,cat,c30,5548_con_dnn_c30_cat_10_n02125311_9274.JPEG
vgg,5,429,NaN,cat,cat,c30,5549_con_dnn_c30_cat_10_n02125311_21825.JPEG
vgg,5,430,NaN,cat,cat,c30,5550_con_dnn_c30_cat_10_n02123597_7055.JPEG
vgg,5,431,NaN,oven,bottle,c30,5551_con_dnn_c30_bottle_10_n04557648_8194.JPEG
vgg,5,432,NaN,bottle,bottle,c30,5552_con_dnn_c30_bottle_10_n02823428_4119.JPEG
vgg,5,433,NaN,bottle,bottle,c30,5553_con_dnn_c30_bottle_10_n02823428_7071.JPEG
vgg,5,434,NaN,bottle,bottle,c30,5554_con_dnn_c30_bottle_10_n03983396_9347.JPEG
vgg,5,435,NaN,bottle,bottle,c30,5555_con_dnn_c30_bottle_10_n04560804_10876.JPEG
vgg,5,436,NaN,bottle,bottle,c30,5556_con_dnn_c30_bottle_10_n04557648_5935.JPEG
vgg,5,437,NaN,bottle,bottle,c30,5557_con_dnn_c30_bottle_10_n04560804_6886.JPEG
vgg,5,438,NaN,bottle,bottle,c30,5558_con_dnn_c30_bottle_10_n04557648_8519.JPEG
vgg,5,439,NaN,bottle,bottle,c30,5559_con_dnn_c30_bottle_10_n04591713_7493.JPEG
vgg,5,440,NaN,bottle,bottle,c30,5560_con_dnn_c30_bottle_10_n02823428_6418.JPEG
vgg,5,441,NaN,truck,truck,c30,5561_con_dnn_c30_truck_10_n03417042_7212.JPEG
vgg,5,442,NaN,truck,truck,c30,5562_con_dnn_c30_truck_10_n03796401_1789.JPEG
vgg,5,443,NaN,truck,truck,c30,5563_con_dnn_c30_truck_10_n03417042_10517.JPEG
vgg,5,444,NaN,truck,truck,c30,5564_con_dnn_c30_truck_10_n04467665_6001.JPEG
vgg,5,445,NaN,truck,truck,c30,5565_con_dnn_c30_truck_10_n03796401_17654.JPEG
vgg,5,446,NaN,truck,truck,c30,5566_con_dnn_c30_truck_10_n03417042_7328.JPEG
vgg,5,447,NaN,truck,truck,c30,5567_con_dnn_c30_truck_10_n03417042_7997.JPEG
vgg,5,448,NaN,truck,truck,c30,5568_con_dnn_c30_truck_10_n03417042_13151.JPEG
vgg,5,449,NaN,truck,truck,c30,5569_con_dnn_c30_truck_10_n03796401_12877.JPEG
vgg,5,450,NaN,truck,truck,c30,5570_con_dnn_c30_truck_10_n03796401_8206.JPEG
vgg,5,451,NaN,car,car,c30,5571_con_dnn_c30_car_10_n04285008_12484.JPEG
vgg,5,452,NaN,car,car,c30,5572_con_dnn_c30_car_10_n03100240_4187.JPEG
vgg,5,453,NaN,car,car,c30,5573_con_dnn_c30_car_10_n04285008_5869.JPEG
vgg,5,454,NaN,car,car,c30,5574_con_dnn_c30_car_10_n04285008_3552.JPEG
vgg,5,455,NaN,car,car,c30,5575_con_dnn_c30_car_10_n04285008_5077.JPEG
vgg,5,456,NaN,truck,car,c30,5576_con_dnn_c30_car_10_n04285008_15747.JPEG
vgg,5,457,NaN,truck,car,c30,5577_con_dnn_c30_car_10_n02814533_44702.JPEG
vgg,5,458,NaN,car,car,c30,5578_con_dnn_c30_car_10_n04285008_7015.JPEG
vgg,5,459,NaN,car,car,c30,5579_con_dnn_c30_car_10_n04285008_13418.JPEG
vgg,5,460,NaN,car,car,c30,5580_con_dnn_c30_car_10_n04285008_11713.JPEG
vgg,5,461,NaN,bird,bird,c30,5581_con_dnn_c30_bird_10_n02028035_20270.JPEG
vgg,5,462,NaN,bird,bird,c30,5582_con_dnn_c30_bird_10_n01601694_5346.JPEG
vgg,5,463,NaN,bird,bird,c30,5583_con_dnn_c30_bird_10_n02009229_1519.JPEG
vgg,5,464,NaN,bird,bird,c30,5584_con_dnn_c30_bird_10_n02025239_770.JPEG
vgg,5,465,NaN,bird,bird,c30,5585_con_dnn_c30_bird_10_n01828970_10929.JPEG
vgg,5,466,NaN,bird,bird,c30,5586_con_dnn_c30_bird_10_n01833805_5975.JPEG
vgg,5,467,NaN,bird,bird,c30,5587_con_dnn_c30_bird_10_n01798484_2618.JPEG
vgg,5,468,NaN,bird,bird,c30,5588_con_dnn_c30_bird_10_n01829413_2872.JPEG
vgg,5,469,NaN,bird,bird,c30,5589_con_dnn_c30_bird_10_n01530575_33765.JPEG
vgg,5,470,NaN,bird,bird,c30,5590_con_dnn_c30_bird_10_n02002724_13110.JPEG
vgg,5,471,NaN,dog,dog,c30,5591_con_dnn_c30_dog_10_n02105855_14586.JPEG
vgg,5,472,NaN,dog,dog,c30,5592_con_dnn_c30_dog_10_n02102177_1401.JPEG
vgg,5,473,NaN,dog,dog,c30,5593_con_dnn_c30_dog_10_n02094114_2400.JPEG
vgg,5,474,NaN,dog,dog,c30,5594_con_dnn_c30_dog_10_n02094114_947.JPEG
vgg,5,475,NaN,dog,dog,c30,5595_con_dnn_c30_dog_10_n02095570_6995.JPEG
vgg,5,476,NaN,dog,dog,c30,5596_con_dnn_c30_dog_10_n02109961_12683.JPEG
vgg,5,477,NaN,dog,dog,c30,5597_con_dnn_c30_dog_10_n02113023_6015.JPEG
vgg,5,478,NaN,dog,dog,c30,5598_con_dnn_c30_dog_10_n02090622_5267.JPEG
vgg,5,479,NaN,dog,dog,c30,5599_con_dnn_c30_dog_10_n02110185_5817.JPEG
vgg,5,480,NaN,dog,dog,c30,5600_con_dnn_c30_dog_10_n02101556_250.JPEG
vgg,5,481,NaN,dog,knife,c15,5601_con_dnn_c15_knife_10_n03041632_24114.JPEG
vgg,5,482,NaN,dog,knife,c15,5602_con_dnn_c15_knife_10_n03041632_43436.JPEG
vgg,5,483,NaN,knife,knife,c15,5603_con_dnn_c15_knife_10_n03041632_46914.JPEG
vgg,5,484,NaN,knife,knife,c15,5604_con_dnn_c15_knife_10_n03041632_56454.JPEG
vgg,5,485,NaN,knife,knife,c15,5605_con_dnn_c15_knife_10_n03041632_84869.JPEG
vgg,5,486,NaN,truck,knife,c15,5606_con_dnn_c15_knife_10_n03041632_86554.JPEG
vgg,5,487,NaN,knife,knife,c15,5607_con_dnn_c15_knife_10_n03041632_18141.JPEG
vgg,5,488,NaN,bottle,knife,c15,5608_con_dnn_c15_knife_10_n03041632_31367.JPEG
vgg,5,489,NaN,knife,knife,c15,5609_con_dnn_c15_knife_10_n03041632_20504.JPEG
vgg,5,490,NaN,boat,knife,c15,5610_con_dnn_c15_knife_10_n03041632_18959.JPEG
vgg,5,491,NaN,keyboard,keyboard,c15,5611_con_dnn_c15_keyboard_10_n03085013_24408.JPEG
vgg,5,492,NaN,keyboard,keyboard,c15,5612_con_dnn_c15_keyboard_10_n03085013_24150.JPEG
vgg,5,493,NaN,keyboard,keyboard,c15,5613_con_dnn_c15_keyboard_10_n03085013_20453.JPEG
vgg,5,494,NaN,keyboard,keyboard,c15,5614_con_dnn_c15_keyboard_10_n04505470_1067.JPEG
vgg,5,495,NaN,keyboard,keyboard,c15,5615_con_dnn_c15_keyboard_10_n04505470_2868.JPEG
vgg,5,496,NaN,keyboard,keyboard,c15,5616_con_dnn_c15_keyboard_10_n03085013_23635.JPEG
vgg,5,497,NaN,truck,keyboard,c15,5617_con_dnn_c15_keyboard_10_n04505470_4617.JPEG
vgg,5,498,NaN,keyboard,keyboard,c15,5618_con_dnn_c15_keyboard_10_n03085013_30789.JPEG
vgg,5,499,NaN,keyboard,keyboard,c15,5619_con_dnn_c15_keyboard_10_n03085013_21243.JPEG
vgg,5,500,NaN,keyboard,keyboard,c15,5620_con_dnn_c15_keyboard_10_n03085013_24310.JPEG
vgg,5,501,NaN,chair,elephant,c15,5621_con_dnn_c15_elephant_10_n02504013_5251.JPEG
vgg,5,502,NaN,elephant,elephant,c15,5622_con_dnn_c15_elephant_10_n02504458_6097.JPEG
vgg,5,503,NaN,elephant,elephant,c15,5623_con_dnn_c15_elephant_10_n02504458_7085.JPEG
vgg,5,504,NaN,elephant,elephant,c15,5624_con_dnn_c15_elephant_10_n02504458_8062.JPEG
vgg,5,505,NaN,bear,elephant,c15,5625_con_dnn_c15_elephant_10_n02504458_3228.JPEG
vgg,5,506,NaN,elephant,elephant,c15,5626_con_dnn_c15_elephant_10_n02504013_10131.JPEG
vgg,5,507,NaN,elephant,elephant,c15,5627_con_dnn_c15_elephant_10_n02504013_1865.JPEG
vgg,5,508,NaN,elephant,elephant,c15,5628_con_dnn_c15_elephant_10_n02504013_3169.JPEG
vgg,5,509,NaN,elephant,elephant,c15,5629_con_dnn_c15_elephant_10_n02504458_6226.JPEG
vgg,5,510,NaN,elephant,elephant,c15,5630_con_dnn_c15_elephant_10_n02504458_4206.JPEG
vgg,5,511,NaN,bicycle,bicycle,c15,5631_con_dnn_c15_bicycle_10_n02835271_1394.JPEG
vgg,5,512,NaN,bicycle,bicycle,c15,5632_con_dnn_c15_bicycle_10_n02835271_7350.JPEG
vgg,5,513,NaN,bicycle,bicycle,c15,5633_con_dnn_c15_bicycle_10_n02835271_26639.JPEG
vgg,5,514,NaN,bicycle,bicycle,c15,5634_con_dnn_c15_bicycle_10_n02835271_11099.JPEG
vgg,5,515,NaN,bicycle,bicycle,c15,5635_con_dnn_c15_bicycle_10_n02835271_7265.JPEG
vgg,5,516,NaN,bicycle,bicycle,c15,5636_con_dnn_c15_bicycle_10_n02835271_13689.JPEG
vgg,5,517,NaN,bicycle,bicycle,c15,5637_con_dnn_c15_bicycle_10_n02835271_24230.JPEG
vgg,5,518,NaN,bicycle,bicycle,c15,5638_con_dnn_c15_bicycle_10_n03792782_67167.JPEG
vgg,5,519,NaN,truck,bicycle,c15,5639_con_dnn_c15_bicycle_10_n02835271_8995.JPEG
vgg,5,520,NaN,bicycle,bicycle,c15,5640_con_dnn_c15_bicycle_10_n02835271_12840.JPEG
vgg,5,521,NaN,airplane,airplane,c15,5641_con_dnn_c15_airplane_10_n02690373_629.JPEG
vgg,5,522,NaN,airplane,airplane,c15,5642_con_dnn_c15_airplane_10_n02690373_3736.JPEG
vgg,5,523,NaN,airplane,airplane,c15,5643_con_dnn_c15_airplane_10_n02690373_6836.JPEG
vgg,5,524,NaN,airplane,airplane,c15,5644_con_dnn_c15_airplane_10_n02690373_17262.JPEG
vgg,5,525,NaN,airplane,airplane,c15,5645_con_dnn_c15_airplane_10_n02690373_3912.JPEG
vgg,5,526,NaN,boat,airplane,c15,5646_con_dnn_c15_airplane_10_n02690373_15708.JPEG
vgg,5,527,NaN,airplane,airplane,c15,5647_con_dnn_c15_airplane_10_n02690373_3150.JPEG
vgg,5,528,NaN,airplane,airplane,c15,5648_con_dnn_c15_airplane_10_n02690373_10402.JPEG
vgg,5,529,NaN,airplane,airplane,c15,5649_con_dnn_c15_airplane_10_n02690373_4066.JPEG
vgg,5,530,NaN,airplane,airplane,c15,5650_con_dnn_c15_airplane_10_n02690373_5328.JPEG
vgg,5,531,NaN,clock,clock,c15,5651_con_dnn_c15_clock_10_n04548280_4747.JPEG
vgg,5,532,NaN,clock,clock,c15,5652_con_dnn_c15_clock_10_n04548280_7839.JPEG
vgg,5,533,NaN,clock,clock,c15,5653_con_dnn_c15_clock_10_n02708093_2469.JPEG
vgg,5,534,NaN,clock,clock,c15,5654_con_dnn_c15_clock_10_n02708093_7810.JPEG
vgg,5,535,NaN,clock,clock,c15,5655_con_dnn_c15_clock_10_n02708093_5551.JPEG
vgg,5,536,NaN,clock,clock,c15,5656_con_dnn_c15_clock_10_n04548280_9217.JPEG
vgg,5,537,NaN,clock,clock,c15,5657_con_dnn_c15_clock_10_n03196217_6377.JPEG
vgg,5,538,NaN,bottle,clock,c15,5658_con_dnn_c15_clock_10_n03196217_845.JPEG
vgg,5,539,NaN,clock,clock,c15,5659_con_dnn_c15_clock_10_n03196217_8792.JPEG
vgg,5,540,NaN,clock,clock,c15,5660_con_dnn_c15_clock_10_n04548280_4323.JPEG
vgg,5,541,NaN,bird,oven,c15,5661_con_dnn_c15_oven_10_n04111531_2241.JPEG
vgg,5,542,NaN,bottle,oven,c15,5662_con_dnn_c15_oven_10_n04111531_8238.JPEG
vgg,5,543,NaN,oven,oven,c15,5663_con_dnn_c15_oven_10_n04111531_1482.JPEG
vgg,5,544,NaN,oven,oven,c15,5664_con_dnn_c15_oven_10_n04111531_10077.JPEG
vgg,5,545,NaN,oven,oven,c15,5665_con_dnn_c15_oven_10_n04111531_4662.JPEG
vgg,5,546,NaN,truck,oven,c15,5666_con_dnn_c15_oven_10_n04111531_13809.JPEG
vgg,5,547,NaN,chair,oven,c15,5667_con_dnn_c15_oven_10_n04111531_1298.JPEG
vgg,5,548,NaN,oven,oven,c15,5668_con_dnn_c15_oven_10_n04111531_14876.JPEG
vgg,5,549,NaN,oven,oven,c15,5669_con_dnn_c15_oven_10_n04111531_4332.JPEG
vgg,5,550,NaN,oven,oven,c15,5670_con_dnn_c15_oven_10_n04111531_23068.JPEG
vgg,5,551,NaN,knife,chair,c15,5671_con_dnn_c15_chair_10_n03376595_7733.JPEG
vgg,5,552,NaN,chair,chair,c15,5672_con_dnn_c15_chair_10_n02791124_1097.JPEG
vgg,5,553,NaN,truck,chair,c15,5673_con_dnn_c15_chair_10_n03376595_235.JPEG
vgg,5,554,NaN,chair,chair,c15,5674_con_dnn_c15_chair_10_n04429376_12023.JPEG
vgg,5,555,NaN,chair,chair,c15,5675_con_dnn_c15_chair_10_n02791124_2949.JPEG
vgg,5,556,NaN,chair,chair,c15,5676_con_dnn_c15_chair_10_n03376595_9535.JPEG
vgg,5,557,NaN,chair,chair,c15,5677_con_dnn_c15_chair_10_n04099969_9847.JPEG
vgg,5,558,NaN,chair,chair,c15,5678_con_dnn_c15_chair_10_n02791124_1052.JPEG
vgg,5,559,NaN,chair,chair,c15,5679_con_dnn_c15_chair_10_n02791124_2614.JPEG
vgg,5,560,NaN,chair,chair,c15,5680_con_dnn_c15_chair_10_n02791124_1137.JPEG
vgg,5,561,NaN,cat,bear,c15,5681_con_dnn_c15_bear_10_n02133161_8513.JPEG
vgg,5,562,NaN,bird,bear,c15,5682_con_dnn_c15_bear_10_n02134084_829.JPEG
vgg,5,563,NaN,bear,bear,c15,5683_con_dnn_c15_bear_10_n02134084_27144.JPEG
vgg,5,564,NaN,bear,bear,c15,5684_con_dnn_c15_bear_10_n02134084_11993.JPEG
vgg,5,565,NaN,dog,bear,c15,5685_con_dnn_c15_bear_10_n02134418_6016.JPEG
vgg,5,566,NaN,dog,bear,c15,5686_con_dnn_c15_bear_10_n02134418_3206.JPEG
vgg,5,567,NaN,bear,bear,c15,5687_con_dnn_c15_bear_10_n02134418_5435.JPEG
vgg,5,568,NaN,bear,bear,c15,5688_con_dnn_c15_bear_10_n02132136_9690.JPEG
vgg,5,569,NaN,bird,bear,c15,5689_con_dnn_c15_bear_10_n02132136_28984.JPEG
vgg,5,570,NaN,bear,bear,c15,5690_con_dnn_c15_bear_10_n02132136_2489.JPEG
vgg,5,571,NaN,boat,boat,c15,5691_con_dnn_c15_boat_10_n03344393_5488.JPEG
vgg,5,572,NaN,boat,boat,c15,5692_con_dnn_c15_boat_10_n04612504_5611.JPEG
vgg,5,573,NaN,boat,boat,c15,5693_con_dnn_c15_boat_10_n03344393_5920.JPEG
vgg,5,574,NaN,boat,boat,c15,5694_con_dnn_c15_boat_10_n03344393_4543.JPEG
vgg,5,575,NaN,boat,boat,c15,5695_con_dnn_c15_boat_10_n02951358_15123.JPEG
vgg,5,576,NaN,boat,boat,c15,5696_con_dnn_c15_boat_10_n02951358_6647.JPEG
vgg,5,577,NaN,boat,boat,c15,5697_con_dnn_c15_boat_10_n04273569_12855.JPEG
vgg,5,578,NaN,boat,boat,c15,5698_con_dnn_c15_boat_10_n02951358_1136.JPEG
vgg,5,579,NaN,boat,boat,c15,5699_con_dnn_c15_boat_10_n03344393_1093.JPEG
vgg,5,580,NaN,boat,boat,c15,5700_con_dnn_c15_boat_10_n04273569_870.JPEG
vgg,5,581,NaN,cat,cat,c15,5701_con_dnn_c15_cat_10_n02123597_25.JPEG
vgg,5,582,NaN,cat,cat,c15,5702_con_dnn_c15_cat_10_n02125311_10174.JPEG
vgg,5,583,NaN,cat,cat,c15,5703_con_dnn_c15_cat_10_n02123159_6481.JPEG
vgg,5,584,NaN,bear,cat,c15,5704_con_dnn_c15_cat_10_n02125311_19455.JPEG
vgg,5,585,NaN,clock,cat,c15,5705_con_dnn_c15_cat_10_n02125311_46546.JPEG
vgg,5,586,NaN,bear,cat,c15,5706_con_dnn_c15_cat_10_n02125311_15440.JPEG
vgg,5,587,NaN,cat,cat,c15,5707_con_dnn_c15_cat_10_n02123597_5283.JPEG
vgg,5,588,NaN,cat,cat,c15,5708_con_dnn_c15_cat_10_n02123394_2537.JPEG
vgg,5,589,NaN,dog,cat,c15,5709_con_dnn_c15_cat_10_n02123159_1296.JPEG
vgg,5,590,NaN,cat,cat,c15,5710_con_dnn_c15_cat_10_n02125311_19354.JPEG
vgg,5,591,NaN,bottle,bottle,c15,5711_con_dnn_c15_bottle_10_n04591713_5928.JPEG
vgg,5,592,NaN,bottle,bottle,c15,5712_con_dnn_c15_bottle_10_n02823428_4299.JPEG
vgg,5,593,NaN,clock,bottle,c15,5713_con_dnn_c15_bottle_10_n04591713_14419.JPEG
vgg,5,594,NaN,bottle,bottle,c15,5714_con_dnn_c15_bottle_10_n04591713_2194.JPEG
vgg,5,595,NaN,keyboard,bottle,c15,5715_con_dnn_c15_bottle_10_n03983396_14366.JPEG
vgg,5,596,NaN,bottle,bottle,c15,5716_con_dnn_c15_bottle_10_n02823428_8816.JPEG
vgg,5,597,NaN,bottle,bottle,c15,5717_con_dnn_c15_bottle_10_n04591713_7782.JPEG
vgg,5,598,NaN,bottle,bottle,c15,5718_con_dnn_c15_bottle_10_n04557648_935.JPEG
vgg,5,599,NaN,bottle,bottle,c15,5719_con_dnn_c15_bottle_10_n04557648_7810.JPEG
vgg,5,600,NaN,bottle,bottle,c15,5720_con_dnn_c15_bottle_10_n04591713_7120.JPEG
vgg,5,601,NaN,truck,truck,c15,5721_con_dnn_c15_truck_10_n04467665_75921.JPEG
vgg,5,602,NaN,truck,truck,c15,5722_con_dnn_c15_truck_10_n03796401_1837.JPEG
vgg,5,603,NaN,truck,truck,c15,5723_con_dnn_c15_truck_10_n03417042_12128.JPEG
vgg,5,604,NaN,truck,truck,c15,5724_con_dnn_c15_truck_10_n03796401_1791.JPEG
vgg,5,605,NaN,truck,truck,c15,5725_con_dnn_c15_truck_10_n04467665_679.JPEG
vgg,5,606,NaN,truck,truck,c15,5726_con_dnn_c15_truck_10_n03417042_6193.JPEG
vgg,5,607,NaN,truck,truck,c15,5727_con_dnn_c15_truck_10_n04467665_70939.JPEG
vgg,5,608,NaN,truck,truck,c15,5728_con_dnn_c15_truck_10_n04467665_27899.JPEG
vgg,5,609,NaN,truck,truck,c15,5729_con_dnn_c15_truck_10_n03417042_12988.JPEG
vgg,5,610,NaN,truck,truck,c15,5730_con_dnn_c15_truck_10_n03417042_3298.JPEG
vgg,5,611,NaN,car,car,c15,5731_con_dnn_c15_car_10_n02814533_4001.JPEG
vgg,5,612,NaN,car,car,c15,5732_con_dnn_c15_car_10_n04285008_12682.JPEG
vgg,5,613,NaN,car,car,c15,5733_con_dnn_c15_car_10_n02814533_14771.JPEG
vgg,5,614,NaN,car,car,c15,5734_con_dnn_c15_car_10_n04285008_4498.JPEG
vgg,5,615,NaN,car,car,c15,5735_con_dnn_c15_car_10_n02814533_35760.JPEG
vgg,5,616,NaN,truck,car,c15,5736_con_dnn_c15_car_10_n04285008_10057.JPEG
vgg,5,617,NaN,car,car,c15,5737_con_dnn_c15_car_10_n03100240_788.JPEG
vgg,5,618,NaN,truck,car,c15,5738_con_dnn_c15_car_10_n02814533_20292.JPEG
vgg,5,619,NaN,truck,car,c15,5739_con_dnn_c15_car_10_n04285008_7231.JPEG
vgg,5,620,NaN,truck,car,c15,5740_con_dnn_c15_car_10_n04285008_6027.JPEG
vgg,5,621,NaN,bird,bird,c15,5741_con_dnn_c15_bird_10_n01532829_334.JPEG
vgg,5,622,NaN,bird,bird,c15,5742_con_dnn_c15_bird_10_n02009229_19773.JPEG
vgg,5,623,NaN,bird,bird,c15,5743_con_dnn_c15_bird_10_n01530575_1907.JPEG
vgg,5,624,NaN,bird,bird,c15,5744_con_dnn_c15_bird_10_n01860187_29141.JPEG
vgg,5,625,NaN,boat,bird,c15,5745_con_dnn_c15_bird_10_n01616318_2521.JPEG
vgg,5,626,NaN,bird,bird,c15,5746_con_dnn_c15_bird_10_n02018795_8036.JPEG
vgg,5,627,NaN,bird,bird,c15,5747_con_dnn_c15_bird_10_n02018795_5888.JPEG
vgg,5,628,NaN,bird,bird,c15,5748_con_dnn_c15_bird_10_n01601694_5305.JPEG
vgg,5,629,NaN,bird,bird,c15,5749_con_dnn_c15_bird_10_n02009229_4547.JPEG
vgg,5,630,NaN,bird,bird,c15,5750_con_dnn_c15_bird_10_n02025239_16987.JPEG
vgg,5,631,NaN,dog,dog,c15,5751_con_dnn_c15_dog_10_n02105056_1018.JPEG
vgg,5,632,NaN,dog,dog,c15,5752_con_dnn_c15_dog_10_n02113712_212.JPEG
vgg,5,633,NaN,dog,dog,c15,5753_con_dnn_c15_dog_10_n02090721_6372.JPEG
vgg,5,634,NaN,dog,dog,c15,5754_con_dnn_c15_dog_10_n02110958_5429.JPEG
vgg,5,635,NaN,dog,dog,c15,5755_con_dnn_c15_dog_10_n02093428_8078.JPEG
vgg,5,636,NaN,dog,dog,c15,5756_con_dnn_c15_dog_10_n02090622_4829.JPEG
vgg,5,637,NaN,dog,dog,c15,5757_con_dnn_c15_dog_10_n02102040_682.JPEG
vgg,5,638,NaN,dog,dog,c15,5758_con_dnn_c15_dog_10_n02104365_4233.JPEG
vgg,5,639,NaN,dog,dog,c15,5759_con_dnn_c15_dog_10_n02088364_6046.JPEG
vgg,5,640,NaN,dog,dog,c15,5760_con_dnn_c15_dog_10_n02099849_3103.JPEG
vgg,5,641,NaN,knife,knife,c10,5761_con_dnn_c10_knife_10_n03041632_40530.JPEG
vgg,5,642,NaN,truck,knife,c10,5762_con_dnn_c10_knife_10_n03041632_32208.JPEG
vgg,5,643,NaN,bottle,knife,c10,5763_con_dnn_c10_knife_10_n03041632_24376.JPEG
vgg,5,644,NaN,truck,knife,c10,5764_con_dnn_c10_knife_10_n03041632_34769.JPEG
vgg,5,645,NaN,knife,knife,c10,5765_con_dnn_c10_knife_10_n03041632_39952.JPEG
vgg,5,646,NaN,chair,knife,c10,5766_con_dnn_c10_knife_10_n03041632_43506.JPEG
vgg,5,647,NaN,airplane,knife,c10,5767_con_dnn_c10_knife_10_n03041632_131.JPEG
vgg,5,648,NaN,knife,knife,c10,5768_con_dnn_c10_knife_10_n03041632_29684.JPEG
vgg,5,649,NaN,boat,knife,c10,5769_con_dnn_c10_knife_10_n03041632_13846.JPEG
vgg,5,650,NaN,bottle,knife,c10,5770_con_dnn_c10_knife_10_n03041632_92637.JPEG
vgg,5,651,NaN,keyboard,keyboard,c10,5771_con_dnn_c10_keyboard_10_n03085013_23465.JPEG
vgg,5,652,NaN,keyboard,keyboard,c10,5772_con_dnn_c10_keyboard_10_n03085013_30335.JPEG
vgg,5,653,NaN,keyboard,keyboard,c10,5773_con_dnn_c10_keyboard_10_n03085013_2189.JPEG
vgg,5,654,NaN,keyboard,keyboard,c10,5774_con_dnn_c10_keyboard_10_n04505470_756.JPEG
vgg,5,655,NaN,keyboard,keyboard,c10,5775_con_dnn_c10_keyboard_10_n04505470_2907.JPEG
vgg,5,656,NaN,boat,keyboard,c10,5776_con_dnn_c10_keyboard_10_n04505470_9331.JPEG
vgg,5,657,NaN,clock,keyboard,c10,5777_con_dnn_c10_keyboard_10_n03085013_25864.JPEG
vgg,5,658,NaN,keyboard,keyboard,c10,5778_con_dnn_c10_keyboard_10_n04505470_6682.JPEG
vgg,5,659,NaN,keyboard,keyboard,c10,5779_con_dnn_c10_keyboard_10_n04505470_1988.JPEG
vgg,5,660,NaN,truck,keyboard,c10,5780_con_dnn_c10_keyboard_10_n03085013_2073.JPEG
vgg,5,661,NaN,bear,elephant,c10,5781_con_dnn_c10_elephant_10_n02504458_10050.JPEG
vgg,5,662,NaN,elephant,elephant,c10,5782_con_dnn_c10_elephant_10_n02504458_12352.JPEG
vgg,5,663,NaN,elephant,elephant,c10,5783_con_dnn_c10_elephant_10_n02504458_6301.JPEG
vgg,5,664,NaN,elephant,elephant,c10,5784_con_dnn_c10_elephant_10_n02504013_701.JPEG
vgg,5,665,NaN,elephant,elephant,c10,5785_con_dnn_c10_elephant_10_n02504458_4838.JPEG
vgg,5,666,NaN,bear,elephant,c10,5786_con_dnn_c10_elephant_10_n02504013_9476.JPEG
vgg,5,667,NaN,boat,elephant,c10,5787_con_dnn_c10_elephant_10_n02504013_5934.JPEG
vgg,5,668,NaN,bear,elephant,c10,5788_con_dnn_c10_elephant_10_n02504458_1864.JPEG
vgg,5,669,NaN,elephant,elephant,c10,5789_con_dnn_c10_elephant_10_n02504458_7631.JPEG
vgg,5,670,NaN,boat,elephant,c10,5790_con_dnn_c10_elephant_10_n02504458_6484.JPEG
vgg,5,671,NaN,bicycle,bicycle,c10,5791_con_dnn_c10_bicycle_10_n02835271_9842.JPEG
vgg,5,672,NaN,bicycle,bicycle,c10,5792_con_dnn_c10_bicycle_10_n02835271_18537.JPEG
vgg,5,673,NaN,truck,bicycle,c10,5793_con_dnn_c10_bicycle_10_n03792782_8087.JPEG
vgg,5,674,NaN,bicycle,bicycle,c10,5794_con_dnn_c10_bicycle_10_n03792782_15614.JPEG
vgg,5,675,NaN,bicycle,bicycle,c10,5795_con_dnn_c10_bicycle_10_n03792782_626.JPEG
vgg,5,676,NaN,bicycle,bicycle,c10,5796_con_dnn_c10_bicycle_10_n03792782_15808.JPEG
vgg,5,677,NaN,dog,bicycle,c10,5797_con_dnn_c10_bicycle_10_n02835271_10596.JPEG
vgg,5,678,NaN,boat,bicycle,c10,5798_con_dnn_c10_bicycle_10_n03792782_6794.JPEG
vgg,5,679,NaN,bicycle,bicycle,c10,5799_con_dnn_c10_bicycle_10_n03792782_13769.JPEG
vgg,5,680,NaN,bicycle,bicycle,c10,5800_con_dnn_c10_bicycle_10_n02835271_3004.JPEG
vgg,5,681,NaN,airplane,airplane,c10,5801_con_dnn_c10_airplane_10_n02690373_10210.JPEG
vgg,5,682,NaN,airplane,airplane,c10,5802_con_dnn_c10_airplane_10_n02690373_2648.JPEG
vgg,5,683,NaN,airplane,airplane,c10,5803_con_dnn_c10_airplane_10_n02690373_2070.JPEG
vgg,5,684,NaN,airplane,airplane,c10,5804_con_dnn_c10_airplane_10_n02690373_1773.JPEG
vgg,5,685,NaN,airplane,airplane,c10,5805_con_dnn_c10_airplane_10_n02690373_13613.JPEG
vgg,5,686,NaN,airplane,airplane,c10,5806_con_dnn_c10_airplane_10_n02690373_4486.JPEG
vgg,5,687,NaN,airplane,airplane,c10,5807_con_dnn_c10_airplane_10_n02690373_7748.JPEG
vgg,5,688,NaN,truck,airplane,c10,5808_con_dnn_c10_airplane_10_n02690373_2268.JPEG
vgg,5,689,NaN,airplane,airplane,c10,5809_con_dnn_c10_airplane_10_n02690373_11799.JPEG
vgg,5,690,NaN,boat,airplane,c10,5810_con_dnn_c10_airplane_10_n02690373_1644.JPEG
vgg,5,691,NaN,clock,clock,c10,5811_con_dnn_c10_clock_10_n03196217_11980.JPEG
vgg,5,692,NaN,clock,clock,c10,5812_con_dnn_c10_clock_10_n04548280_983.JPEG
vgg,5,693,NaN,clock,clock,c10,5813_con_dnn_c10_clock_10_n04548280_5556.JPEG
vgg,5,694,NaN,clock,clock,c10,5814_con_dnn_c10_clock_10_n04548280_4951.JPEG
vgg,5,695,NaN,clock,clock,c10,5815_con_dnn_c10_clock_10_n02708093_6560.JPEG
vgg,5,696,NaN,clock,clock,c10,5816_con_dnn_c10_clock_10_n04548280_77.JPEG
vgg,5,697,NaN,clock,clock,c10,5817_con_dnn_c10_clock_10_n02708093_8355.JPEG
vgg,5,698,NaN,chair,clock,c10,5818_con_dnn_c10_clock_10_n03196217_7875.JPEG
vgg,5,699,NaN,clock,clock,c10,5819_con_dnn_c10_clock_10_n03196217_2511.JPEG
vgg,5,700,NaN,clock,clock,c10,5820_con_dnn_c10_clock_10_n04548280_2091.JPEG
vgg,5,701,NaN,truck,oven,c10,5821_con_dnn_c10_oven_10_n04111531_14690.JPEG
vgg,5,702,NaN,oven,oven,c10,5822_con_dnn_c10_oven_10_n04111531_82.JPEG
vgg,5,703,NaN,truck,oven,c10,5823_con_dnn_c10_oven_10_n04111531_2051.JPEG
vgg,5,704,NaN,chair,oven,c10,5824_con_dnn_c10_oven_10_n04111531_14435.JPEG
vgg,5,705,NaN,boat,oven,c10,5825_con_dnn_c10_oven_10_n04111531_12589.JPEG
vgg,5,706,NaN,oven,oven,c10,5826_con_dnn_c10_oven_10_n04111531_9939.JPEG
vgg,5,707,NaN,bottle,oven,c10,5827_con_dnn_c10_oven_10_n04111531_5304.JPEG
vgg,5,708,NaN,clock,oven,c10,5828_con_dnn_c10_oven_10_n04111531_4988.JPEG
vgg,5,709,NaN,bottle,oven,c10,5829_con_dnn_c10_oven_10_n04111531_2630.JPEG
vgg,5,710,NaN,oven,oven,c10,5830_con_dnn_c10_oven_10_n04111531_11505.JPEG
vgg,5,711,NaN,chair,chair,c10,5831_con_dnn_c10_chair_10_n04099969_14475.JPEG
vgg,5,712,NaN,chair,chair,c10,5832_con_dnn_c10_chair_10_n04099969_451.JPEG
vgg,5,713,NaN,chair,chair,c10,5833_con_dnn_c10_chair_10_n02791124_1870.JPEG
vgg,5,714,NaN,bottle,chair,c10,5834_con_dnn_c10_chair_10_n04099969_9019.JPEG
vgg,5,715,NaN,chair,chair,c10,5835_con_dnn_c10_chair_10_n03376595_19214.JPEG
vgg,5,716,NaN,chair,chair,c10,5836_con_dnn_c10_chair_10_n03376595_16121.JPEG
vgg,5,717,NaN,chair,chair,c10,5837_con_dnn_c10_chair_10_n04429376_8774.JPEG
vgg,5,718,NaN,chair,chair,c10,5838_con_dnn_c10_chair_10_n04099969_26693.JPEG
vgg,5,719,NaN,chair,chair,c10,5839_con_dnn_c10_chair_10_n04099969_7054.JPEG
vgg,5,720,NaN,chair,chair,c10,5840_con_dnn_c10_chair_10_n03376595_455.JPEG
vgg,5,721,NaN,boat,bear,c10,5841_con_dnn_c10_bear_10_n02132136_1822.JPEG
vgg,5,722,NaN,bear,bear,c10,5842_con_dnn_c10_bear_10_n02132136_22786.JPEG
vgg,5,723,NaN,bird,bear,c10,5843_con_dnn_c10_bear_10_n02133161_6316.JPEG
vgg,5,724,NaN,cat,bear,c10,5844_con_dnn_c10_bear_10_n02133161_13105.JPEG
vgg,5,725,NaN,bear,bear,c10,5845_con_dnn_c10_bear_10_n02132136_1953.JPEG
vgg,5,726,NaN,bear,bear,c10,5846_con_dnn_c10_bear_10_n02133161_10647.JPEG
vgg,5,727,NaN,bear,bear,c10,5847_con_dnn_c10_bear_10_n02132136_4888.JPEG
vgg,5,728,NaN,bear,bear,c10,5848_con_dnn_c10_bear_10_n02133161_777.JPEG
vgg,5,729,NaN,bear,bear,c10,5849_con_dnn_c10_bear_10_n02132136_8561.JPEG
vgg,5,730,NaN,bear,bear,c10,5850_con_dnn_c10_bear_10_n02133161_765.JPEG
vgg,5,731,NaN,boat,boat,c10,5851_con_dnn_c10_boat_10_n04612504_20125.JPEG
vgg,5,732,NaN,truck,boat,c10,5852_con_dnn_c10_boat_10_n03344393_8762.JPEG
vgg,5,733,NaN,boat,boat,c10,5853_con_dnn_c10_boat_10_n04273569_17801.JPEG
vgg,5,734,NaN,boat,boat,c10,5854_con_dnn_c10_boat_10_n03662601_13961.JPEG
vgg,5,735,NaN,boat,boat,c10,5855_con_dnn_c10_boat_10_n02951358_29721.JPEG
vgg,5,736,NaN,boat,boat,c10,5856_con_dnn_c10_boat_10_n03344393_6217.JPEG
vgg,5,737,NaN,boat,boat,c10,5857_con_dnn_c10_boat_10_n04273569_17964.JPEG
vgg,5,738,NaN,boat,boat,c10,5858_con_dnn_c10_boat_10_n03344393_6758.JPEG
vgg,5,739,NaN,boat,boat,c10,5859_con_dnn_c10_boat_10_n04612504_2129.JPEG
vgg,5,740,NaN,boat,boat,c10,5860_con_dnn_c10_boat_10_n04612504_27749.JPEG
vgg,5,741,NaN,bottle,cat,c10,5861_con_dnn_c10_cat_10_n02123394_959.JPEG
vgg,5,742,NaN,cat,cat,c10,5862_con_dnn_c10_cat_10_n02125311_13062.JPEG
vgg,5,743,NaN,cat,cat,c10,5863_con_dnn_c10_cat_10_n02123597_3704.JPEG
vgg,5,744,NaN,cat,cat,c10,5864_con_dnn_c10_cat_10_n02123394_1721.JPEG
vgg,5,745,NaN,dog,cat,c10,5865_con_dnn_c10_cat_10_n02123159_2532.JPEG
vgg,5,746,NaN,dog,cat,c10,5866_con_dnn_c10_cat_10_n02123045_15581.JPEG
vgg,5,747,NaN,cat,cat,c10,5867_con_dnn_c10_cat_10_n02123597_9352.JPEG
vgg,5,748,NaN,cat,cat,c10,5868_con_dnn_c10_cat_10_n02123597_10896.JPEG
vgg,5,749,NaN,cat,cat,c10,5869_con_dnn_c10_cat_10_n02123597_4756.JPEG
vgg,5,750,NaN,bear,cat,c10,5870_con_dnn_c10_cat_10_n02125311_57826.JPEG
vgg,5,751,NaN,bottle,bottle,c10,5871_con_dnn_c10_bottle_10_n04560804_2288.JPEG
vgg,5,752,NaN,boat,bottle,c10,5872_con_dnn_c10_bottle_10_n04557648_24236.JPEG
vgg,5,753,NaN,bottle,bottle,c10,5873_con_dnn_c10_bottle_10_n04591713_3770.JPEG
vgg,5,754,NaN,bottle,bottle,c10,5874_con_dnn_c10_bottle_10_n04557648_5502.JPEG
vgg,5,755,NaN,bottle,bottle,c10,5875_con_dnn_c10_bottle_10_n02823428_1733.JPEG
vgg,5,756,NaN,bottle,bottle,c10,5876_con_dnn_c10_bottle_10_n04560804_13348.JPEG
vgg,5,757,NaN,keyboard,bottle,c10,5877_con_dnn_c10_bottle_10_n03983396_4313.JPEG
vgg,5,758,NaN,bottle,bottle,c10,5878_con_dnn_c10_bottle_10_n03937543_8262.JPEG
vgg,5,759,NaN,bottle,bottle,c10,5879_con_dnn_c10_bottle_10_n04557648_3334.JPEG
vgg,5,760,NaN,bottle,bottle,c10,5880_con_dnn_c10_bottle_10_n04557648_1247.JPEG
vgg,5,761,NaN,truck,truck,c10,5881_con_dnn_c10_truck_10_n04467665_4782.JPEG
vgg,5,762,NaN,truck,truck,c10,5882_con_dnn_c10_truck_10_n03417042_16149.JPEG
vgg,5,763,NaN,truck,truck,c10,5883_con_dnn_c10_truck_10_n04467665_4639.JPEG
vgg,5,764,NaN,truck,truck,c10,5884_con_dnn_c10_truck_10_n04467665_29260.JPEG
vgg,5,765,NaN,boat,truck,c10,5885_con_dnn_c10_truck_10_n03796401_17201.JPEG
vgg,5,766,NaN,truck,truck,c10,5886_con_dnn_c10_truck_10_n03417042_1344.JPEG
vgg,5,767,NaN,boat,truck,c10,5887_con_dnn_c10_truck_10_n03417042_1348.JPEG
vgg,5,768,NaN,truck,truck,c10,5888_con_dnn_c10_truck_10_n03796401_26535.JPEG
vgg,5,769,NaN,truck,truck,c10,5889_con_dnn_c10_truck_10_n03796401_2447.JPEG
vgg,5,770,NaN,truck,truck,c10,5890_con_dnn_c10_truck_10_n03796401_11407.JPEG
vgg,5,771,NaN,truck,car,c10,5891_con_dnn_c10_car_10_n04285008_14128.JPEG
vgg,5,772,NaN,car,car,c10,5892_con_dnn_c10_car_10_n02814533_16978.JPEG
vgg,5,773,NaN,car,car,c10,5893_con_dnn_c10_car_10_n02814533_31275.JPEG
vgg,5,774,NaN,bottle,car,c10,5894_con_dnn_c10_car_10_n04285008_8951.JPEG
vgg,5,775,NaN,truck,car,c10,5895_con_dnn_c10_car_10_n02814533_19107.JPEG
vgg,5,776,NaN,car,car,c10,5896_con_dnn_c10_car_10_n02814533_10135.JPEG
vgg,5,777,NaN,truck,car,c10,5897_con_dnn_c10_car_10_n03100240_14753.JPEG
vgg,5,778,NaN,truck,car,c10,5898_con_dnn_c10_car_10_n04285008_11957.JPEG
vgg,5,779,NaN,car,car,c10,5899_con_dnn_c10_car_10_n02814533_71930.JPEG
vgg,5,780,NaN,truck,car,c10,5900_con_dnn_c10_car_10_n02814533_34289.JPEG
vgg,5,781,NaN,bird,bird,c10,5901_con_dnn_c10_bird_10_n01622779_18795.JPEG
vgg,5,782,NaN,bird,bird,c10,5902_con_dnn_c10_bird_10_n01818515_7857.JPEG
vgg,5,783,NaN,bird,bird,c10,5903_con_dnn_c10_bird_10_n02002556_11720.JPEG
vgg,5,784,NaN,dog,bird,c10,5904_con_dnn_c10_bird_10_n02007558_19107.JPEG
vgg,5,785,NaN,bird,bird,c10,5905_con_dnn_c10_bird_10_n02009912_358.JPEG
vgg,5,786,NaN,boat,bird,c10,5906_con_dnn_c10_bird_10_n02017213_6424.JPEG
vgg,5,787,NaN,bird,bird,c10,5907_con_dnn_c10_bird_10_n01828970_10774.JPEG
vgg,5,788,NaN,dog,bird,c10,5908_con_dnn_c10_bird_10_n01855672_8257.JPEG
vgg,5,789,NaN,boat,bird,c10,5909_con_dnn_c10_bird_10_n01537544_9132.JPEG
vgg,5,790,NaN,bird,bird,c10,5910_con_dnn_c10_bird_10_n02027492_9460.JPEG
vgg,5,791,NaN,bird,dog,c10,5911_con_dnn_c10_dog_10_n02108422_8597.JPEG
vgg,5,792,NaN,dog,dog,c10,5912_con_dnn_c10_dog_10_n02094114_4522.JPEG
vgg,5,793,NaN,dog,dog,c10,5913_con_dnn_c10_dog_10_n02109525_64859.JPEG
vgg,5,794,NaN,dog,dog,c10,5914_con_dnn_c10_dog_10_n02105505_1911.JPEG
vgg,5,795,NaN,dog,dog,c10,5915_con_dnn_c10_dog_10_n02111129_6412.JPEG
vgg,5,796,NaN,dog,dog,c10,5916_con_dnn_c10_dog_10_n02087046_2037.JPEG
vgg,5,797,NaN,dog,dog,c10,5917_con_dnn_c10_dog_10_n02086079_22061.JPEG
vgg,5,798,NaN,dog,dog,c10,5918_con_dnn_c10_dog_10_n02105162_4838.JPEG
vgg,5,799,NaN,dog,dog,c10,5919_con_dnn_c10_dog_10_n02091467_13224.JPEG
vgg,5,800,NaN,dog,dog,c10,5920_con_dnn_c10_dog_10_n02095570_355.JPEG
vgg,5,801,NaN,boat,knife,c05,5921_con_dnn_c05_knife_10_n03041632_42156.JPEG
vgg,5,802,NaN,knife,knife,c05,5922_con_dnn_c05_knife_10_n03041632_50034.JPEG
vgg,5,803,NaN,knife,knife,c05,5923_con_dnn_c05_knife_10_n03041632_45326.JPEG
vgg,5,804,NaN,boat,knife,c05,5924_con_dnn_c05_knife_10_n03041632_29337.JPEG
vgg,5,805,NaN,knife,knife,c05,5925_con_dnn_c05_knife_10_n03041632_11327.JPEG
vgg,5,806,NaN,dog,knife,c05,5926_con_dnn_c05_knife_10_n03041632_37618.JPEG
vgg,5,807,NaN,boat,knife,c05,5927_con_dnn_c05_knife_10_n03041632_32896.JPEG
vgg,5,808,NaN,boat,knife,c05,5928_con_dnn_c05_knife_10_n03041632_30602.JPEG
vgg,5,809,NaN,boat,knife,c05,5929_con_dnn_c05_knife_10_n03041632_2153.JPEG
vgg,5,810,NaN,boat,knife,c05,5930_con_dnn_c05_knife_10_n03041632_15099.JPEG
vgg,5,811,NaN,keyboard,keyboard,c05,5931_con_dnn_c05_keyboard_10_n03085013_10463.JPEG
vgg,5,812,NaN,bottle,keyboard,c05,5932_con_dnn_c05_keyboard_10_n04505470_2616.JPEG
vgg,5,813,NaN,keyboard,keyboard,c05,5933_con_dnn_c05_keyboard_10_n04505470_250.JPEG
vgg,5,814,NaN,bird,keyboard,c05,5934_con_dnn_c05_keyboard_10_n04505470_4895.JPEG
vgg,5,815,NaN,boat,keyboard,c05,5935_con_dnn_c05_keyboard_10_n03085013_7091.JPEG
vgg,5,816,NaN,boat,keyboard,c05,5936_con_dnn_c05_keyboard_10_n04505470_5047.JPEG
vgg,5,817,NaN,keyboard,keyboard,c05,5937_con_dnn_c05_keyboard_10_n04505470_4575.JPEG
vgg,5,818,NaN,boat,keyboard,c05,5938_con_dnn_c05_keyboard_10_n03085013_3078.JPEG
vgg,5,819,NaN,keyboard,keyboard,c05,5939_con_dnn_c05_keyboard_10_n03085013_6038.JPEG
vgg,5,820,NaN,keyboard,keyboard,c05,5940_con_dnn_c05_keyboard_10_n03085013_92.JPEG
vgg,5,821,NaN,bear,elephant,c05,5941_con_dnn_c05_elephant_10_n02504013_6187.JPEG
vgg,5,822,NaN,bear,elephant,c05,5942_con_dnn_c05_elephant_10_n02504013_2830.JPEG
vgg,5,823,NaN,airplane,elephant,c05,5943_con_dnn_c05_elephant_10_n02504458_5671.JPEG
vgg,5,824,NaN,bear,elephant,c05,5944_con_dnn_c05_elephant_10_n02504458_5303.JPEG
vgg,5,825,NaN,bear,elephant,c05,5945_con_dnn_c05_elephant_10_n02504458_2471.JPEG
vgg,5,826,NaN,bear,elephant,c05,5946_con_dnn_c05_elephant_10_n02504013_15805.JPEG
vgg,5,827,NaN,boat,elephant,c05,5947_con_dnn_c05_elephant_10_n02504013_3800.JPEG
vgg,5,828,NaN,boat,elephant,c05,5948_con_dnn_c05_elephant_10_n02504013_5919.JPEG
vgg,5,829,NaN,boat,elephant,c05,5949_con_dnn_c05_elephant_10_n02504013_10543.JPEG
vgg,5,830,NaN,boat,elephant,c05,5950_con_dnn_c05_elephant_10_n02504458_3381.JPEG
vgg,5,831,NaN,boat,bicycle,c05,5951_con_dnn_c05_bicycle_10_n03792782_4295.JPEG
vgg,5,832,NaN,clock,bicycle,c05,5952_con_dnn_c05_bicycle_10_n02835271_2753.JPEG
vgg,5,833,NaN,clock,bicycle,c05,5953_con_dnn_c05_bicycle_10_n02835271_7188.JPEG
vgg,5,834,NaN,boat,bicycle,c05,5954_con_dnn_c05_bicycle_10_n02835271_25033.JPEG
vgg,5,835,NaN,bird,bicycle,c05,5955_con_dnn_c05_bicycle_10_n03792782_687.JPEG
vgg,5,836,NaN,boat,bicycle,c05,5956_con_dnn_c05_bicycle_10_n02835271_1261.JPEG
vgg,5,837,NaN,clock,bicycle,c05,5957_con_dnn_c05_bicycle_10_n02835271_1222.JPEG
vgg,5,838,NaN,clock,bicycle,c05,5958_con_dnn_c05_bicycle_10_n02835271_22448.JPEG
vgg,5,839,NaN,clock,bicycle,c05,5959_con_dnn_c05_bicycle_10_n02835271_19394.JPEG
vgg,5,840,NaN,boat,bicycle,c05,5960_con_dnn_c05_bicycle_10_n03792782_2883.JPEG
vgg,5,841,NaN,boat,airplane,c05,5961_con_dnn_c05_airplane_10_n02690373_7055.JPEG
vgg,5,842,NaN,airplane,airplane,c05,5962_con_dnn_c05_airplane_10_n02690373_7473.JPEG
vgg,5,843,NaN,boat,airplane,c05,5963_con_dnn_c05_airplane_10_n02690373_599.JPEG
vgg,5,844,NaN,boat,airplane,c05,5964_con_dnn_c05_airplane_10_n02690373_3021.JPEG
vgg,5,845,NaN,airplane,airplane,c05,5965_con_dnn_c05_airplane_10_n02690373_5415.JPEG
vgg,5,846,NaN,airplane,airplane,c05,5966_con_dnn_c05_airplane_10_n02690373_10449.JPEG
vgg,5,847,NaN,boat,airplane,c05,5967_con_dnn_c05_airplane_10_n02690373_2908.JPEG
vgg,5,848,NaN,airplane,airplane,c05,5968_con_dnn_c05_airplane_10_n02690373_6803.JPEG
vgg,5,849,NaN,boat,airplane,c05,5969_con_dnn_c05_airplane_10_n02690373_4788.JPEG
vgg,5,850,NaN,airplane,airplane,c05,5970_con_dnn_c05_airplane_10_n02690373_5797.JPEG
vgg,5,851,NaN,clock,clock,c05,5971_con_dnn_c05_clock_10_n04548280_3605.JPEG
vgg,5,852,NaN,boat,clock,c05,5972_con_dnn_c05_clock_10_n03196217_5052.JPEG
vgg,5,853,NaN,bottle,clock,c05,5973_con_dnn_c05_clock_10_n02708093_22.JPEG
vgg,5,854,NaN,clock,clock,c05,5974_con_dnn_c05_clock_10_n02708093_7899.JPEG
vgg,5,855,NaN,clock,clock,c05,5975_con_dnn_c05_clock_10_n02708093_6673.JPEG
vgg,5,856,NaN,clock,clock,c05,5976_con_dnn_c05_clock_10_n04548280_7047.JPEG
vgg,5,857,NaN,airplane,clock,c05,5977_con_dnn_c05_clock_10_n02708093_4833.JPEG
vgg,5,858,NaN,clock,clock,c05,5978_con_dnn_c05_clock_10_n04548280_11412.JPEG
vgg,5,859,NaN,boat,clock,c05,5979_con_dnn_c05_clock_10_n02708093_7841.JPEG
vgg,5,860,NaN,clock,clock,c05,5980_con_dnn_c05_clock_10_n02708093_3454.JPEG
vgg,5,861,NaN,boat,oven,c05,5981_con_dnn_c05_oven_10_n04111531_12702.JPEG
vgg,5,862,NaN,boat,oven,c05,5982_con_dnn_c05_oven_10_n04111531_6454.JPEG
vgg,5,863,NaN,bottle,oven,c05,5983_con_dnn_c05_oven_10_n04111531_6094.JPEG
vgg,5,864,NaN,boat,oven,c05,5984_con_dnn_c05_oven_10_n04111531_20493.JPEG
vgg,5,865,NaN,boat,oven,c05,5985_con_dnn_c05_oven_10_n04111531_1847.JPEG
vgg,5,866,NaN,airplane,oven,c05,5986_con_dnn_c05_oven_10_n04111531_2213.JPEG
vgg,5,867,NaN,boat,oven,c05,5987_con_dnn_c05_oven_10_n04111531_1305.JPEG
vgg,5,868,NaN,clock,oven,c05,5988_con_dnn_c05_oven_10_n04111531_22563.JPEG
vgg,5,869,NaN,boat,oven,c05,5989_con_dnn_c05_oven_10_n04111531_22203.JPEG
vgg,5,870,NaN,boat,oven,c05,5990_con_dnn_c05_oven_10_n04111531_12885.JPEG
vgg,5,871,NaN,boat,chair,c05,5991_con_dnn_c05_chair_10_n04099969_11938.JPEG
vgg,5,872,NaN,boat,chair,c05,5992_con_dnn_c05_chair_10_n04429376_24716.JPEG
vgg,5,873,NaN,boat,chair,c05,5993_con_dnn_c05_chair_10_n04429376_34265.JPEG
vgg,5,874,NaN,boat,chair,c05,5994_con_dnn_c05_chair_10_n02791124_4679.JPEG
vgg,5,875,NaN,bottle,chair,c05,5995_con_dnn_c05_chair_10_n03376595_13441.JPEG
vgg,5,876,NaN,chair,chair,c05,5996_con_dnn_c05_chair_10_n03376595_2345.JPEG
vgg,5,877,NaN,chair,chair,c05,5997_con_dnn_c05_chair_10_n04099969_8868.JPEG
vgg,5,878,NaN,bottle,chair,c05,5998_con_dnn_c05_chair_10_n04429376_439.JPEG
vgg,5,879,NaN,clock,chair,c05,5999_con_dnn_c05_chair_10_n02791124_6375.JPEG
vgg,5,880,NaN,boat,chair,c05,6000_con_dnn_c05_chair_10_n04429376_15153.JPEG
vgg,5,881,NaN,boat,bear,c05,6001_con_dnn_c05_bear_10_n02132136_8540.JPEG
vgg,5,882,NaN,bear,bear,c05,6002_con_dnn_c05_bear_10_n02132136_13623.JPEG
vgg,5,883,NaN,clock,bear,c05,6003_con_dnn_c05_bear_10_n02133161_5382.JPEG
vgg,5,884,NaN,boat,bear,c05,6004_con_dnn_c05_bear_10_n02134418_836.JPEG
vgg,5,885,NaN,boat,bear,c05,6005_con_dnn_c05_bear_10_n02134418_4267.JPEG
vgg,5,886,NaN,boat,bear,c05,6006_con_dnn_c05_bear_10_n02134418_6240.JPEG
vgg,5,887,NaN,bear,bear,c05,6007_con_dnn_c05_bear_10_n02133161_16064.JPEG
vgg,5,888,NaN,bear,bear,c05,6008_con_dnn_c05_bear_10_n02134084_16757.JPEG
vgg,5,889,NaN,boat,bear,c05,6009_con_dnn_c05_bear_10_n02134418_3289.JPEG
vgg,5,890,NaN,boat,bear,c05,6010_con_dnn_c05_bear_10_n02134418_931.JPEG
vgg,5,891,NaN,boat,boat,c05,6011_con_dnn_c05_boat_10_n04273569_1229.JPEG
vgg,5,892,NaN,boat,boat,c05,6012_con_dnn_c05_boat_10_n04612504_10161.JPEG
vgg,5,893,NaN,boat,boat,c05,6013_con_dnn_c05_boat_10_n04612504_6722.JPEG
vgg,5,894,NaN,boat,boat,c05,6014_con_dnn_c05_boat_10_n04612504_1099.JPEG
vgg,5,895,NaN,boat,boat,c05,6015_con_dnn_c05_boat_10_n04612504_21983.JPEG
vgg,5,896,NaN,boat,boat,c05,6016_con_dnn_c05_boat_10_n04612504_5965.JPEG
vgg,5,897,NaN,boat,boat,c05,6017_con_dnn_c05_boat_10_n03662601_16694.JPEG
vgg,5,898,NaN,boat,boat,c05,6018_con_dnn_c05_boat_10_n03344393_661.JPEG
vgg,5,899,NaN,boat,boat,c05,6019_con_dnn_c05_boat_10_n04273569_31959.JPEG
vgg,5,900,NaN,boat,boat,c05,6020_con_dnn_c05_boat_10_n02951358_14721.JPEG
vgg,5,901,NaN,bear,cat,c05,6021_con_dnn_c05_cat_10_n02124075_13512.JPEG
vgg,5,902,NaN,boat,cat,c05,6022_con_dnn_c05_cat_10_n02123159_4555.JPEG
vgg,5,903,NaN,boat,cat,c05,6023_con_dnn_c05_cat_10_n02123045_6125.JPEG
vgg,5,904,NaN,boat,cat,c05,6024_con_dnn_c05_cat_10_n02123045_7168.JPEG
vgg,5,905,NaN,boat,cat,c05,6025_con_dnn_c05_cat_10_n02123045_7335.JPEG
vgg,5,906,NaN,boat,cat,c05,6026_con_dnn_c05_cat_10_n02123394_1760.JPEG
vgg,5,907,NaN,bottle,cat,c05,6027_con_dnn_c05_cat_10_n02123159_2146.JPEG
vgg,5,908,NaN,boat,cat,c05,6028_con_dnn_c05_cat_10_n02123394_464.JPEG
vgg,5,909,NaN,boat,cat,c05,6029_con_dnn_c05_cat_10_n02123394_706.JPEG
vgg,5,910,NaN,boat,cat,c05,6030_con_dnn_c05_cat_10_n02123159_2902.JPEG
vgg,5,911,NaN,bottle,bottle,c05,6031_con_dnn_c05_bottle_10_n04579145_5850.JPEG
vgg,5,912,NaN,boat,bottle,c05,6032_con_dnn_c05_bottle_10_n04557648_11812.JPEG
vgg,5,913,NaN,bottle,bottle,c05,6033_con_dnn_c05_bottle_10_n04591713_3470.JPEG
vgg,5,914,NaN,boat,bottle,c05,6034_con_dnn_c05_bottle_10_n04591713_619.JPEG
vgg,5,915,NaN,bottle,bottle,c05,6035_con_dnn_c05_bottle_10_n04591713_2525.JPEG
vgg,5,916,NaN,bottle,bottle,c05,6036_con_dnn_c05_bottle_10_n04579145_2313.JPEG
vgg,5,917,NaN,bottle,bottle,c05,6037_con_dnn_c05_bottle_10_n03983396_4266.JPEG
vgg,5,918,NaN,clock,bottle,c05,6038_con_dnn_c05_bottle_10_n04591713_6923.JPEG
vgg,5,919,NaN,bottle,bottle,c05,6039_con_dnn_c05_bottle_10_n04560804_28761.JPEG
vgg,5,920,NaN,bottle,bottle,c05,6040_con_dnn_c05_bottle_10_n04560804_19221.JPEG
vgg,5,921,NaN,boat,truck,c05,6041_con_dnn_c05_truck_10_n03417042_3731.JPEG
vgg,5,922,NaN,boat,truck,c05,6042_con_dnn_c05_truck_10_n03796401_7928.JPEG
vgg,5,923,NaN,boat,truck,c05,6043_con_dnn_c05_truck_10_n04467665_356.JPEG
vgg,5,924,NaN,boat,truck,c05,6044_con_dnn_c05_truck_10_n03417042_5218.JPEG
vgg,5,925,NaN,bear,truck,c05,6045_con_dnn_c05_truck_10_n03796401_22744.JPEG
vgg,5,926,NaN,boat,truck,c05,6046_con_dnn_c05_truck_10_n04467665_3683.JPEG
vgg,5,927,NaN,truck,truck,c05,6047_con_dnn_c05_truck_10_n03417042_22635.JPEG
vgg,5,928,NaN,boat,truck,c05,6048_con_dnn_c05_truck_10_n04467665_8443.JPEG
vgg,5,929,NaN,boat,truck,c05,6049_con_dnn_c05_truck_10_n03417042_20489.JPEG
vgg,5,930,NaN,truck,truck,c05,6050_con_dnn_c05_truck_10_n04467665_4371.JPEG
vgg,5,931,NaN,boat,car,c05,6051_con_dnn_c05_car_10_n03100240_8288.JPEG
vgg,5,932,NaN,boat,car,c05,6052_con_dnn_c05_car_10_n03100240_20489.JPEG
vgg,5,933,NaN,boat,car,c05,6053_con_dnn_c05_car_10_n03100240_8351.JPEG
vgg,5,934,NaN,boat,car,c05,6054_con_dnn_c05_car_10_n04285008_8699.JPEG
vgg,5,935,NaN,truck,car,c05,6055_con_dnn_c05_car_10_n02814533_2880.JPEG
vgg,5,936,NaN,boat,car,c05,6056_con_dnn_c05_car_10_n03100240_5673.JPEG
vgg,5,937,NaN,boat,car,c05,6057_con_dnn_c05_car_10_n04285008_7951.JPEG
vgg,5,938,NaN,airplane,car,c05,6058_con_dnn_c05_car_10_n02814533_40984.JPEG
vgg,5,939,NaN,boat,car,c05,6059_con_dnn_c05_car_10_n02814533_5357.JPEG
vgg,5,940,NaN,boat,car,c05,6060_con_dnn_c05_car_10_n04285008_4236.JPEG
vgg,5,941,NaN,clock,bird,c05,6061_con_dnn_c05_bird_10_n02017213_3854.JPEG
vgg,5,942,NaN,boat,bird,c05,6062_con_dnn_c05_bird_10_n01817953_13285.JPEG
vgg,5,943,NaN,bird,bird,c05,6063_con_dnn_c05_bird_10_n02017213_2695.JPEG
vgg,5,944,NaN,boat,bird,c05,6064_con_dnn_c05_bird_10_n01843383_4963.JPEG
vgg,5,945,NaN,boat,bird,c05,6065_con_dnn_c05_bird_10_n01843383_1801.JPEG
vgg,5,946,NaN,bottle,bird,c05,6066_con_dnn_c05_bird_10_n01817953_13483.JPEG
vgg,5,947,NaN,boat,bird,c05,6067_con_dnn_c05_bird_10_n01614925_27858.JPEG
vgg,5,948,NaN,bird,bird,c05,6068_con_dnn_c05_bird_10_n01860187_2928.JPEG
vgg,5,949,NaN,bird,bird,c05,6069_con_dnn_c05_bird_10_n02027492_6294.JPEG
vgg,5,950,NaN,bird,bird,c05,6070_con_dnn_c05_bird_10_n01582220_7440.JPEG
vgg,5,951,NaN,boat,dog,c05,6071_con_dnn_c05_dog_10_n02110958_3966.JPEG
vgg,5,952,NaN,dog,dog,c05,6072_con_dnn_c05_dog_10_n02086240_5027.JPEG
vgg,5,953,NaN,clock,dog,c05,6073_con_dnn_c05_dog_10_n02088466_9521.JPEG
vgg,5,954,NaN,dog,dog,c05,6074_con_dnn_c05_dog_10_n02086646_8962.JPEG
vgg,5,955,NaN,dog,dog,c05,6075_con_dnn_c05_dog_10_n02109047_11090.JPEG
vgg,5,956,NaN,dog,dog,c05,6076_con_dnn_c05_dog_10_n02086910_5962.JPEG
vgg,5,957,NaN,boat,dog,c05,6077_con_dnn_c05_dog_10_n02096294_7560.JPEG
vgg,5,958,NaN,boat,dog,c05,6078_con_dnn_c05_dog_10_n02099429_4300.JPEG
vgg,5,959,NaN,boat,dog,c05,6079_con_dnn_c05_dog_10_n02110063_8494.JPEG
vgg,5,960,NaN,boat,dog,c05,6080_con_dnn_c05_dog_10_n02095314_4978.JPEG
vgg,5,961,NaN,bird,knife,c03,6081_con_dnn_c03_knife_10_n03041632_15444.JPEG
vgg,5,962,NaN,bottle,knife,c03,6082_con_dnn_c03_knife_10_n03041632_24883.JPEG
vgg,5,963,NaN,boat,knife,c03,6083_con_dnn_c03_knife_10_n03041632_10802.JPEG
vgg,5,964,NaN,boat,knife,c03,6084_con_dnn_c03_knife_10_n03041632_12707.JPEG
vgg,5,965,NaN,boat,knife,c03,6085_con_dnn_c03_knife_10_n03041632_95293.JPEG
vgg,5,966,NaN,boat,knife,c03,6086_con_dnn_c03_knife_10_n03041632_8618.JPEG
vgg,5,967,NaN,boat,knife,c03,6087_con_dnn_c03_knife_10_n03041632_16826.JPEG
vgg,5,968,NaN,boat,knife,c03,6088_con_dnn_c03_knife_10_n03041632_48071.JPEG
vgg,5,969,NaN,boat,knife,c03,6089_con_dnn_c03_knife_10_n03041632_7448.JPEG
vgg,5,970,NaN,airplane,knife,c03,6090_con_dnn_c03_knife_10_n03041632_44363.JPEG
vgg,5,971,NaN,boat,keyboard,c03,6091_con_dnn_c03_keyboard_10_n03085013_23316.JPEG
vgg,5,972,NaN,clock,keyboard,c03,6092_con_dnn_c03_keyboard_10_n03085013_3489.JPEG
vgg,5,973,NaN,keyboard,keyboard,c03,6093_con_dnn_c03_keyboard_10_n04505470_4246.JPEG
vgg,5,974,NaN,airplane,keyboard,c03,6094_con_dnn_c03_keyboard_10_n04505470_9446.JPEG
vgg,5,975,NaN,bottle,keyboard,c03,6095_con_dnn_c03_keyboard_10_n04505470_4487.JPEG
vgg,5,976,NaN,keyboard,keyboard,c03,6096_con_dnn_c03_keyboard_10_n04505470_3117.JPEG
vgg,5,977,NaN,boat,keyboard,c03,6097_con_dnn_c03_keyboard_10_n04505470_4562.JPEG
vgg,5,978,NaN,boat,keyboard,c03,6098_con_dnn_c03_keyboard_10_n03085013_24392.JPEG
vgg,5,979,NaN,keyboard,keyboard,c03,6099_con_dnn_c03_keyboard_10_n03085013_21399.JPEG
vgg,5,980,NaN,boat,keyboard,c03,6100_con_dnn_c03_keyboard_10_n03085013_23005.JPEG
vgg,5,981,NaN,boat,elephant,c03,6101_con_dnn_c03_elephant_10_n02504013_18091.JPEG
vgg,5,982,NaN,boat,elephant,c03,6102_con_dnn_c03_elephant_10_n02504458_804.JPEG
vgg,5,983,NaN,boat,elephant,c03,6103_con_dnn_c03_elephant_10_n02504458_12855.JPEG
vgg,5,984,NaN,bird,elephant,c03,6104_con_dnn_c03_elephant_10_n02504458_1233.JPEG
vgg,5,985,NaN,boat,elephant,c03,6105_con_dnn_c03_elephant_10_n02504013_9402.JPEG
vgg,5,986,NaN,boat,elephant,c03,6106_con_dnn_c03_elephant_10_n02504013_4995.JPEG
vgg,5,987,NaN,boat,elephant,c03,6107_con_dnn_c03_elephant_10_n02504013_6737.JPEG
vgg,5,988,NaN,boat,elephant,c03,6108_con_dnn_c03_elephant_10_n02504458_6874.JPEG
vgg,5,989,NaN,boat,elephant,c03,6109_con_dnn_c03_elephant_10_n02504458_1985.JPEG
vgg,5,990,NaN,boat,elephant,c03,6110_con_dnn_c03_elephant_10_n02504013_8856.JPEG
vgg,5,991,NaN,boat,bicycle,c03,6111_con_dnn_c03_bicycle_10_n03792782_3467.JPEG
vgg,5,992,NaN,clock,bicycle,c03,6112_con_dnn_c03_bicycle_10_n02835271_1487.JPEG
vgg,5,993,NaN,boat,bicycle,c03,6113_con_dnn_c03_bicycle_10_n02835271_7594.JPEG
vgg,5,994,NaN,clock,bicycle,c03,6114_con_dnn_c03_bicycle_10_n02835271_4480.JPEG
vgg,5,995,NaN,boat,bicycle,c03,6115_con_dnn_c03_bicycle_10_n02835271_5193.JPEG
vgg,5,996,NaN,boat,bicycle,c03,6116_con_dnn_c03_bicycle_10_n02835271_2671.JPEG
vgg,5,997,NaN,boat,bicycle,c03,6117_con_dnn_c03_bicycle_10_n03792782_10395.JPEG
vgg,5,998,NaN,clock,bicycle,c03,6118_con_dnn_c03_bicycle_10_n03792782_15758.JPEG
vgg,5,999,NaN,airplane,bicycle,c03,6119_con_dnn_c03_bicycle_10_n03792782_952.JPEG
vgg,5,1000,NaN,boat,bicycle,c03,6120_con_dnn_c03_bicycle_10_n03792782_6023.JPEG
vgg,5,1001,NaN,airplane,airplane,c03,6121_con_dnn_c03_airplane_10_n02690373_2131.JPEG
vgg,5,1002,NaN,boat,airplane,c03,6122_con_dnn_c03_airplane_10_n02690373_10181.JPEG
vgg,5,1003,NaN,boat,airplane,c03,6123_con_dnn_c03_airplane_10_n02690373_3492.JPEG
vgg,5,1004,NaN,boat,airplane,c03,6124_con_dnn_c03_airplane_10_n02690373_6336.JPEG
vgg,5,1005,NaN,boat,airplane,c03,6125_con_dnn_c03_airplane_10_n02690373_997.JPEG
vgg,5,1006,NaN,boat,airplane,c03,6126_con_dnn_c03_airplane_10_n02690373_2440.JPEG
vgg,5,1007,NaN,airplane,airplane,c03,6127_con_dnn_c03_airplane_10_n02690373_1279.JPEG
vgg,5,1008,NaN,boat,airplane,c03,6128_con_dnn_c03_airplane_10_n02690373_8950.JPEG
vgg,5,1009,NaN,boat,airplane,c03,6129_con_dnn_c03_airplane_10_n02690373_8967.JPEG
vgg,5,1010,NaN,bear,airplane,c03,6130_con_dnn_c03_airplane_10_n02690373_7311.JPEG
vgg,5,1011,NaN,boat,clock,c03,6131_con_dnn_c03_clock_10_n04548280_8008.JPEG
vgg,5,1012,NaN,boat,clock,c03,6132_con_dnn_c03_clock_10_n03196217_4342.JPEG
vgg,5,1013,NaN,boat,clock,c03,6133_con_dnn_c03_clock_10_n02708093_214.JPEG
vgg,5,1014,NaN,clock,clock,c03,6134_con_dnn_c03_clock_10_n04548280_4588.JPEG
vgg,5,1015,NaN,clock,clock,c03,6135_con_dnn_c03_clock_10_n03196217_9069.JPEG
vgg,5,1016,NaN,clock,clock,c03,6136_con_dnn_c03_clock_10_n02708093_2778.JPEG
vgg,5,1017,NaN,boat,clock,c03,6137_con_dnn_c03_clock_10_n04548280_3708.JPEG
vgg,5,1018,NaN,clock,clock,c03,6138_con_dnn_c03_clock_10_n02708093_2346.JPEG
vgg,5,1019,NaN,bottle,clock,c03,6139_con_dnn_c03_clock_10_n03196217_5893.JPEG
vgg,5,1020,NaN,clock,clock,c03,6140_con_dnn_c03_clock_10_n02708093_7105.JPEG
vgg,5,1021,NaN,boat,oven,c03,6141_con_dnn_c03_oven_10_n04111531_12510.JPEG
vgg,5,1022,NaN,boat,oven,c03,6142_con_dnn_c03_oven_10_n04111531_5429.JPEG
vgg,5,1023,NaN,boat,oven,c03,6143_con_dnn_c03_oven_10_n04111531_16270.JPEG
vgg,5,1024,NaN,boat,oven,c03,6144_con_dnn_c03_oven_10_n04111531_9982.JPEG
vgg,5,1025,NaN,clock,oven,c03,6145_con_dnn_c03_oven_10_n04111531_1313.JPEG
vgg,5,1026,NaN,clock,oven,c03,6146_con_dnn_c03_oven_10_n04111531_4407.JPEG
vgg,5,1027,NaN,bottle,oven,c03,6147_con_dnn_c03_oven_10_n04111531_3063.JPEG
vgg,5,1028,NaN,boat,oven,c03,6148_con_dnn_c03_oven_10_n04111531_4452.JPEG
vgg,5,1029,NaN,airplane,oven,c03,6149_con_dnn_c03_oven_10_n04111531_716.JPEG
vgg,5,1030,NaN,clock,oven,c03,6150_con_dnn_c03_oven_10_n04111531_22466.JPEG
vgg,5,1031,NaN,clock,chair,c03,6151_con_dnn_c03_chair_10_n04099969_1795.JPEG
vgg,5,1032,NaN,chair,chair,c03,6152_con_dnn_c03_chair_10_n03376595_596.JPEG
vgg,5,1033,NaN,boat,chair,c03,6153_con_dnn_c03_chair_10_n04099969_3621.JPEG
vgg,5,1034,NaN,boat,chair,c03,6154_con_dnn_c03_chair_10_n03376595_13703.JPEG
vgg,5,1035,NaN,clock,chair,c03,6155_con_dnn_c03_chair_10_n04429376_23972.JPEG
vgg,5,1036,NaN,boat,chair,c03,6156_con_dnn_c03_chair_10_n04429376_19354.JPEG
vgg,5,1037,NaN,boat,chair,c03,6157_con_dnn_c03_chair_10_n02791124_3431.JPEG
vgg,5,1038,NaN,boat,chair,c03,6158_con_dnn_c03_chair_10_n04429376_6268.JPEG
vgg,5,1039,NaN,boat,chair,c03,6159_con_dnn_c03_chair_10_n04099969_17069.JPEG
vgg,5,1040,NaN,boat,chair,c03,6160_con_dnn_c03_chair_10_n03376595_6865.JPEG
vgg,5,1041,NaN,boat,bear,c03,6161_con_dnn_c03_bear_10_n02132136_9840.JPEG
vgg,5,1042,NaN,boat,bear,c03,6162_con_dnn_c03_bear_10_n02132136_18776.JPEG
vgg,5,1043,NaN,boat,bear,c03,6163_con_dnn_c03_bear_10_n02133161_16188.JPEG
vgg,5,1044,NaN,bird,bear,c03,6164_con_dnn_c03_bear_10_n02134084_18968.JPEG
vgg,5,1045,NaN,boat,bear,c03,6165_con_dnn_c03_bear_10_n02134418_1263.JPEG
vgg,5,1046,NaN,boat,bear,c03,6166_con_dnn_c03_bear_10_n02134418_10879.JPEG
vgg,5,1047,NaN,boat,bear,c03,6167_con_dnn_c03_bear_10_n02132136_16055.JPEG
vgg,5,1048,NaN,boat,bear,c03,6168_con_dnn_c03_bear_10_n02134418_3053.JPEG
vgg,5,1049,NaN,boat,bear,c03,6169_con_dnn_c03_bear_10_n02134084_23313.JPEG
vgg,5,1050,NaN,boat,bear,c03,6170_con_dnn_c03_bear_10_n02132136_3603.JPEG
vgg,5,1051,NaN,boat,boat,c03,6171_con_dnn_c03_boat_10_n04273569_1449.JPEG
vgg,5,1052,NaN,boat,boat,c03,6172_con_dnn_c03_boat_10_n03344393_5350.JPEG
vgg,5,1053,NaN,boat,boat,c03,6173_con_dnn_c03_boat_10_n02951358_22476.JPEG
vgg,5,1054,NaN,bird,boat,c03,6174_con_dnn_c03_boat_10_n03344393_2846.JPEG
vgg,5,1055,NaN,boat,boat,c03,6175_con_dnn_c03_boat_10_n02951358_3936.JPEG
vgg,5,1056,NaN,boat,boat,c03,6176_con_dnn_c03_boat_10_n03344393_2582.JPEG
vgg,5,1057,NaN,boat,boat,c03,6177_con_dnn_c03_boat_10_n04273569_16078.JPEG
vgg,5,1058,NaN,boat,boat,c03,6178_con_dnn_c03_boat_10_n03344393_3185.JPEG
vgg,5,1059,NaN,bird,boat,c03,6179_con_dnn_c03_boat_10_n02951358_3481.JPEG
vgg,5,1060,NaN,boat,boat,c03,6180_con_dnn_c03_boat_10_n04612504_10815.JPEG
vgg,5,1061,NaN,boat,cat,c03,6181_con_dnn_c03_cat_10_n02123597_6398.JPEG
vgg,5,1062,NaN,boat,cat,c03,6182_con_dnn_c03_cat_10_n02123045_4314.JPEG
vgg,5,1063,NaN,airplane,cat,c03,6183_con_dnn_c03_cat_10_n02123159_1762.JPEG
vgg,5,1064,NaN,boat,cat,c03,6184_con_dnn_c03_cat_10_n02123597_10825.JPEG
vgg,5,1065,NaN,boat,cat,c03,6185_con_dnn_c03_cat_10_n02123159_2869.JPEG
vgg,5,1066,NaN,boat,cat,c03,6186_con_dnn_c03_cat_10_n02123159_2167.JPEG
vgg,5,1067,NaN,boat,cat,c03,6187_con_dnn_c03_cat_10_n02123394_2047.JPEG
vgg,5,1068,NaN,boat,cat,c03,6188_con_dnn_c03_cat_10_n02123159_5656.JPEG
vgg,5,1069,NaN,boat,cat,c03,6189_con_dnn_c03_cat_10_n02123597_14530.JPEG
vgg,5,1070,NaN,boat,cat,c03,6190_con_dnn_c03_cat_10_n02123394_1849.JPEG
vgg,5,1071,NaN,clock,bottle,c03,6191_con_dnn_c03_bottle_10_n02823428_2653.JPEG
vgg,5,1072,NaN,bottle,bottle,c03,6192_con_dnn_c03_bottle_10_n03983396_4682.JPEG
vgg,5,1073,NaN,boat,bottle,c03,6193_con_dnn_c03_bottle_10_n03983396_13300.JPEG
vgg,5,1074,NaN,bottle,bottle,c03,6194_con_dnn_c03_bottle_10_n03983396_6306.JPEG
vgg,5,1075,NaN,boat,bottle,c03,6195_con_dnn_c03_bottle_10_n02823428_4194.JPEG
vgg,5,1076,NaN,bottle,bottle,c03,6196_con_dnn_c03_bottle_10_n04579145_7417.JPEG
vgg,5,1077,NaN,boat,bottle,c03,6197_con_dnn_c03_bottle_10_n04557648_1530.JPEG
vgg,5,1078,NaN,bottle,bottle,c03,6198_con_dnn_c03_bottle_10_n03937543_1719.JPEG
vgg,5,1079,NaN,boat,bottle,c03,6199_con_dnn_c03_bottle_10_n03983396_17260.JPEG
vgg,5,1080,NaN,bottle,bottle,c03,6200_con_dnn_c03_bottle_10_n03937543_7477.JPEG
vgg,5,1081,NaN,boat,truck,c03,6201_con_dnn_c03_truck_10_n04467665_40886.JPEG
vgg,5,1082,NaN,boat,truck,c03,6202_con_dnn_c03_truck_10_n04467665_7876.JPEG
vgg,5,1083,NaN,boat,truck,c03,6203_con_dnn_c03_truck_10_n04467665_66750.JPEG
vgg,5,1084,NaN,boat,truck,c03,6204_con_dnn_c03_truck_10_n03417042_16238.JPEG
vgg,5,1085,NaN,boat,truck,c03,6205_con_dnn_c03_truck_10_n03417042_2603.JPEG
vgg,5,1086,NaN,boat,truck,c03,6206_con_dnn_c03_truck_10_n03796401_1681.JPEG
vgg,5,1087,NaN,boat,truck,c03,6207_con_dnn_c03_truck_10_n03417042_1492.JPEG
vgg,5,1088,NaN,boat,truck,c03,6208_con_dnn_c03_truck_10_n03417042_1635.JPEG
vgg,5,1089,NaN,boat,truck,c03,6209_con_dnn_c03_truck_10_n03417042_16871.JPEG
vgg,5,1090,NaN,boat,truck,c03,6210_con_dnn_c03_truck_10_n03417042_3280.JPEG
vgg,5,1091,NaN,boat,car,c03,6211_con_dnn_c03_car_10_n03100240_16860.JPEG
vgg,5,1092,NaN,boat,car,c03,6212_con_dnn_c03_car_10_n04285008_901.JPEG
vgg,5,1093,NaN,boat,car,c03,6213_con_dnn_c03_car_10_n02814533_596.JPEG
vgg,5,1094,NaN,truck,car,c03,6214_con_dnn_c03_car_10_n02814533_86307.JPEG
vgg,5,1095,NaN,boat,car,c03,6215_con_dnn_c03_car_10_n02814533_90486.JPEG
vgg,5,1096,NaN,boat,car,c03,6216_con_dnn_c03_car_10_n03100240_3192.JPEG
vgg,5,1097,NaN,boat,car,c03,6217_con_dnn_c03_car_10_n04285008_4331.JPEG
vgg,5,1098,NaN,airplane,car,c03,6218_con_dnn_c03_car_10_n03100240_20114.JPEG
vgg,5,1099,NaN,boat,car,c03,6219_con_dnn_c03_car_10_n03100240_2682.JPEG
vgg,5,1100,NaN,clock,car,c03,6220_con_dnn_c03_car_10_n03100240_6626.JPEG
vgg,5,1101,NaN,boat,bird,c03,6221_con_dnn_c03_bird_10_n01843383_9885.JPEG
vgg,5,1102,NaN,boat,bird,c03,6222_con_dnn_c03_bird_10_n01819313_11428.JPEG
vgg,5,1103,NaN,airplane,bird,c03,6223_con_dnn_c03_bird_10_n01558993_12.JPEG
vgg,5,1104,NaN,boat,bird,c03,6224_con_dnn_c03_bird_10_n01532829_30432.JPEG
vgg,5,1105,NaN,bird,bird,c03,6225_con_dnn_c03_bird_10_n01795545_67.JPEG
vgg,5,1106,NaN,bird,bird,c03,6226_con_dnn_c03_bird_10_n02033041_2069.JPEG
vgg,5,1107,NaN,boat,bird,c03,6227_con_dnn_c03_bird_10_n01843065_11347.JPEG
vgg,5,1108,NaN,boat,bird,c03,6228_con_dnn_c03_bird_10_n02051845_5482.JPEG
vgg,5,1109,NaN,boat,bird,c03,6229_con_dnn_c03_bird_10_n01843065_2043.JPEG
vgg,5,1110,NaN,boat,bird,c03,6230_con_dnn_c03_bird_10_n01558993_3860.JPEG
vgg,5,1111,NaN,boat,dog,c03,6231_con_dnn_c03_dog_10_n02097047_1181.JPEG
vgg,5,1112,NaN,boat,dog,c03,6232_con_dnn_c03_dog_10_n02099267_3136.JPEG
vgg,5,1113,NaN,boat,dog,c03,6233_con_dnn_c03_dog_10_n02109961_66062.JPEG
vgg,5,1114,NaN,clock,dog,c03,6234_con_dnn_c03_dog_10_n02100877_16568.JPEG
vgg,5,1115,NaN,boat,dog,c03,6235_con_dnn_c03_dog_10_n02110185_8223.JPEG
vgg,5,1116,NaN,boat,dog,c03,6236_con_dnn_c03_dog_10_n02100877_26008.JPEG
vgg,5,1117,NaN,boat,dog,c03,6237_con_dnn_c03_dog_10_n02112018_10583.JPEG
vgg,5,1118,NaN,clock,dog,c03,6238_con_dnn_c03_dog_10_n02107142_8568.JPEG
vgg,5,1119,NaN,boat,dog,c03,6239_con_dnn_c03_dog_10_n02098286_166.JPEG
vgg,5,1120,NaN,boat,dog,c03,6240_con_dnn_c03_dog_10_n02108000_4104.JPEG
vgg,5,1121,NaN,airplane,knife,c01,6241_con_dnn_c01_knife_10_n03041632_9635.JPEG
vgg,5,1122,NaN,boat,knife,c01,6242_con_dnn_c01_knife_10_n03041632_105081.JPEG
vgg,5,1123,NaN,boat,knife,c01,6243_con_dnn_c01_knife_10_n03041632_16932.JPEG
vgg,5,1124,NaN,boat,knife,c01,6244_con_dnn_c01_knife_10_n03041632_28129.JPEG
vgg,5,1125,NaN,boat,knife,c01,6245_con_dnn_c01_knife_10_n03041632_89912.JPEG
vgg,5,1126,NaN,boat,knife,c01,6246_con_dnn_c01_knife_10_n03041632_24461.JPEG
vgg,5,1127,NaN,boat,knife,c01,6247_con_dnn_c01_knife_10_n03041632_19275.JPEG
vgg,5,1128,NaN,boat,knife,c01,6248_con_dnn_c01_knife_10_n03041632_102764.JPEG
vgg,5,1129,NaN,bird,knife,c01,6249_con_dnn_c01_knife_10_n03041632_10540.JPEG
vgg,5,1130,NaN,airplane,knife,c01,6250_con_dnn_c01_knife_10_n03041632_32979.JPEG
vgg,5,1131,NaN,boat,keyboard,c01,6251_con_dnn_c01_keyboard_10_n03085013_20492.JPEG
vgg,5,1132,NaN,clock,keyboard,c01,6252_con_dnn_c01_keyboard_10_n03085013_11399.JPEG
vgg,5,1133,NaN,airplane,keyboard,c01,6253_con_dnn_c01_keyboard_10_n04505470_5109.JPEG
vgg,5,1134,NaN,boat,keyboard,c01,6254_con_dnn_c01_keyboard_10_n04505470_2599.JPEG
vgg,5,1135,NaN,boat,keyboard,c01,6255_con_dnn_c01_keyboard_10_n04505470_286.JPEG
vgg,5,1136,NaN,boat,keyboard,c01,6256_con_dnn_c01_keyboard_10_n04505470_2865.JPEG
vgg,5,1137,NaN,boat,keyboard,c01,6257_con_dnn_c01_keyboard_10_n03085013_29318.JPEG
vgg,5,1138,NaN,clock,keyboard,c01,6258_con_dnn_c01_keyboard_10_n03085013_21886.JPEG
vgg,5,1139,NaN,bird,keyboard,c01,6259_con_dnn_c01_keyboard_10_n04505470_6327.JPEG
vgg,5,1140,NaN,bird,keyboard,c01,6260_con_dnn_c01_keyboard_10_n04505470_4549.JPEG
vgg,5,1141,NaN,bird,elephant,c01,6261_con_dnn_c01_elephant_10_n02504458_7842.JPEG
vgg,5,1142,NaN,boat,elephant,c01,6262_con_dnn_c01_elephant_10_n02504013_3916.JPEG
vgg,5,1143,NaN,boat,elephant,c01,6263_con_dnn_c01_elephant_10_n02504458_9094.JPEG
vgg,5,1144,NaN,bird,elephant,c01,6264_con_dnn_c01_elephant_10_n02504013_543.JPEG
vgg,5,1145,NaN,boat,elephant,c01,6265_con_dnn_c01_elephant_10_n02504458_5277.JPEG
vgg,5,1146,NaN,bird,elephant,c01,6266_con_dnn_c01_elephant_10_n02504458_1519.JPEG
vgg,5,1147,NaN,airplane,elephant,c01,6267_con_dnn_c01_elephant_10_n02504013_7633.JPEG
vgg,5,1148,NaN,bird,elephant,c01,6268_con_dnn_c01_elephant_10_n02504013_4730.JPEG
vgg,5,1149,NaN,bird,elephant,c01,6269_con_dnn_c01_elephant_10_n02504458_6602.JPEG
vgg,5,1150,NaN,bird,elephant,c01,6270_con_dnn_c01_elephant_10_n02504013_603.JPEG
vgg,5,1151,NaN,airplane,bicycle,c01,6271_con_dnn_c01_bicycle_10_n02835271_9531.JPEG
vgg,5,1152,NaN,bird,bicycle,c01,6272_con_dnn_c01_bicycle_10_n03792782_3591.JPEG
vgg,5,1153,NaN,bird,bicycle,c01,6273_con_dnn_c01_bicycle_10_n02835271_3643.JPEG
vgg,5,1154,NaN,airplane,bicycle,c01,6274_con_dnn_c01_bicycle_10_n03792782_7092.JPEG
vgg,5,1155,NaN,bird,bicycle,c01,6275_con_dnn_c01_bicycle_10_n02835271_922.JPEG
vgg,5,1156,NaN,bird,bicycle,c01,6276_con_dnn_c01_bicycle_10_n02835271_10754.JPEG
vgg,5,1157,NaN,bird,bicycle,c01,6277_con_dnn_c01_bicycle_10_n02835271_7639.JPEG
vgg,5,1158,NaN,airplane,bicycle,c01,6278_con_dnn_c01_bicycle_10_n03792782_10763.JPEG
vgg,5,1159,NaN,bird,bicycle,c01,6279_con_dnn_c01_bicycle_10_n03792782_988.JPEG
vgg,5,1160,NaN,boat,bicycle,c01,6280_con_dnn_c01_bicycle_10_n02835271_20975.JPEG
vgg,5,1161,NaN,bird,airplane,c01,6281_con_dnn_c01_airplane_10_n02690373_7740.JPEG
vgg,5,1162,NaN,bird,airplane,c01,6282_con_dnn_c01_airplane_10_n02690373_8141.JPEG
vgg,5,1163,NaN,bird,airplane,c01,6283_con_dnn_c01_airplane_10_n02690373_4671.JPEG
vgg,5,1164,NaN,airplane,airplane,c01,6284_con_dnn_c01_airplane_10_n02690373_8417.JPEG
vgg,5,1165,NaN,bird,airplane,c01,6285_con_dnn_c01_airplane_10_n02690373_139.JPEG
vgg,5,1166,NaN,airplane,airplane,c01,6286_con_dnn_c01_airplane_10_n02690373_18693.JPEG
vgg,5,1167,NaN,boat,airplane,c01,6287_con_dnn_c01_airplane_10_n02690373_1952.JPEG
vgg,5,1168,NaN,boat,airplane,c01,6288_con_dnn_c01_airplane_10_n02690373_4586.JPEG
vgg,5,1169,NaN,bird,airplane,c01,6289_con_dnn_c01_airplane_10_n02690373_2240.JPEG
vgg,5,1170,NaN,boat,airplane,c01,6290_con_dnn_c01_airplane_10_n02690373_1706.JPEG
vgg,5,1171,NaN,airplane,clock,c01,6291_con_dnn_c01_clock_10_n02708093_3355.JPEG
vgg,5,1172,NaN,boat,clock,c01,6292_con_dnn_c01_clock_10_n02708093_2545.JPEG
vgg,5,1173,NaN,bottle,clock,c01,6293_con_dnn_c01_clock_10_n03196217_5217.JPEG
vgg,5,1174,NaN,boat,clock,c01,6294_con_dnn_c01_clock_10_n02708093_6655.JPEG
vgg,5,1175,NaN,clock,clock,c01,6295_con_dnn_c01_clock_10_n02708093_1714.JPEG
vgg,5,1176,NaN,clock,clock,c01,6296_con_dnn_c01_clock_10_n04548280_4229.JPEG
vgg,5,1177,NaN,clock,clock,c01,6297_con_dnn_c01_clock_10_n02708093_2580.JPEG
vgg,5,1178,NaN,boat,clock,c01,6298_con_dnn_c01_clock_10_n03196217_194.JPEG
vgg,5,1179,NaN,clock,clock,c01,6299_con_dnn_c01_clock_10_n02708093_276.JPEG
vgg,5,1180,NaN,airplane,clock,c01,6300_con_dnn_c01_clock_10_n03196217_11657.JPEG
vgg,5,1181,NaN,boat,oven,c01,6301_con_dnn_c01_oven_10_n04111531_766.JPEG
vgg,5,1182,NaN,boat,oven,c01,6302_con_dnn_c01_oven_10_n04111531_1050.JPEG
vgg,5,1183,NaN,clock,oven,c01,6303_con_dnn_c01_oven_10_n04111531_10306.JPEG
vgg,5,1184,NaN,boat,oven,c01,6304_con_dnn_c01_oven_10_n04111531_13542.JPEG
vgg,5,1185,NaN,bird,oven,c01,6305_con_dnn_c01_oven_10_n04111531_669.JPEG
vgg,5,1186,NaN,clock,oven,c01,6306_con_dnn_c01_oven_10_n04111531_10769.JPEG
vgg,5,1187,NaN,bird,oven,c01,6307_con_dnn_c01_oven_10_n04111531_6568.JPEG
vgg,5,1188,NaN,bird,oven,c01,6308_con_dnn_c01_oven_10_n04111531_9702.JPEG
vgg,5,1189,NaN,boat,oven,c01,6309_con_dnn_c01_oven_10_n04111531_22097.JPEG
vgg,5,1190,NaN,boat,oven,c01,6310_con_dnn_c01_oven_10_n04111531_467.JPEG
vgg,5,1191,NaN,clock,chair,c01,6311_con_dnn_c01_chair_10_n04099969_24666.JPEG
vgg,5,1192,NaN,airplane,chair,c01,6312_con_dnn_c01_chair_10_n02791124_7818.JPEG
vgg,5,1193,NaN,bird,chair,c01,6313_con_dnn_c01_chair_10_n04429376_18546.JPEG
vgg,5,1194,NaN,clock,chair,c01,6314_con_dnn_c01_chair_10_n02791124_15873.JPEG
vgg,5,1195,NaN,airplane,chair,c01,6315_con_dnn_c01_chair_10_n04099969_17056.JPEG
vgg,5,1196,NaN,boat,chair,c01,6316_con_dnn_c01_chair_10_n04429376_12605.JPEG
vgg,5,1197,NaN,bird,chair,c01,6317_con_dnn_c01_chair_10_n02791124_4640.JPEG
vgg,5,1198,NaN,airplane,chair,c01,6318_con_dnn_c01_chair_10_n03376595_9134.JPEG
vgg,5,1199,NaN,bird,chair,c01,6319_con_dnn_c01_chair_10_n04429376_34079.JPEG
vgg,5,1200,NaN,boat,chair,c01,6320_con_dnn_c01_chair_10_n02791124_419.JPEG
vgg,5,1201,NaN,airplane,bear,c01,6321_con_dnn_c01_bear_10_n02134084_8111.JPEG
vgg,5,1202,NaN,boat,bear,c01,6322_con_dnn_c01_bear_10_n02134418_4458.JPEG
vgg,5,1203,NaN,boat,bear,c01,6323_con_dnn_c01_bear_10_n02134418_249.JPEG
vgg,5,1204,NaN,bird,bear,c01,6324_con_dnn_c01_bear_10_n02132136_16088.JPEG
vgg,5,1205,NaN,airplane,bear,c01,6325_con_dnn_c01_bear_10_n02132136_12191.JPEG
vgg,5,1206,NaN,boat,bear,c01,6326_con_dnn_c01_bear_10_n02134418_2175.JPEG
vgg,5,1207,NaN,airplane,bear,c01,6327_con_dnn_c01_bear_10_n02134084_16632.JPEG
vgg,5,1208,NaN,airplane,bear,c01,6328_con_dnn_c01_bear_10_n02134418_9315.JPEG
vgg,5,1209,NaN,airplane,bear,c01,6329_con_dnn_c01_bear_10_n02134418_4460.JPEG
vgg,5,1210,NaN,boat,bear,c01,6330_con_dnn_c01_bear_10_n02134084_3695.JPEG
vgg,5,1211,NaN,bird,boat,c01,6331_con_dnn_c01_boat_10_n04273569_17320.JPEG
vgg,5,1212,NaN,airplane,boat,c01,6332_con_dnn_c01_boat_10_n02951358_2629.JPEG
vgg,5,1213,NaN,bird,boat,c01,6333_con_dnn_c01_boat_10_n02951358_1045.JPEG
vgg,5,1214,NaN,boat,boat,c01,6334_con_dnn_c01_boat_10_n03344393_6260.JPEG
vgg,5,1215,NaN,airplane,boat,c01,6335_con_dnn_c01_boat_10_n04273569_12650.JPEG
vgg,5,1216,NaN,bird,boat,c01,6336_con_dnn_c01_boat_10_n03344393_2448.JPEG
vgg,5,1217,NaN,clock,boat,c01,6337_con_dnn_c01_boat_10_n03344393_1822.JPEG
vgg,5,1218,NaN,bird,boat,c01,6338_con_dnn_c01_boat_10_n04612504_5785.JPEG
vgg,5,1219,NaN,bird,boat,c01,6339_con_dnn_c01_boat_10_n03662601_35635.JPEG
vgg,5,1220,NaN,bird,boat,c01,6340_con_dnn_c01_boat_10_n02951358_2841.JPEG
vgg,5,1221,NaN,boat,cat,c01,6341_con_dnn_c01_cat_10_n02125311_47603.JPEG
vgg,5,1222,NaN,bird,cat,c01,6342_con_dnn_c01_cat_10_n02124075_1422.JPEG
vgg,5,1223,NaN,bird,cat,c01,6343_con_dnn_c01_cat_10_n02123159_7446.JPEG
vgg,5,1224,NaN,bird,cat,c01,6344_con_dnn_c01_cat_10_n02123045_3298.JPEG
vgg,5,1225,NaN,bird,cat,c01,6345_con_dnn_c01_cat_10_n02125311_19878.JPEG
vgg,5,1226,NaN,boat,cat,c01,6346_con_dnn_c01_cat_10_n02123597_13553.JPEG
vgg,5,1227,NaN,clock,cat,c01,6347_con_dnn_c01_cat_10_n02124075_4421.JPEG
vgg,5,1228,NaN,clock,cat,c01,6348_con_dnn_c01_cat_10_n02125311_4756.JPEG
vgg,5,1229,NaN,boat,cat,c01,6349_con_dnn_c01_cat_10_n02123045_16183.JPEG
vgg,5,1230,NaN,airplane,cat,c01,6350_con_dnn_c01_cat_10_n02123045_12769.JPEG
vgg,5,1231,NaN,boat,bottle,c01,6351_con_dnn_c01_bottle_10_n04591713_9599.JPEG
vgg,5,1232,NaN,boat,bottle,c01,6352_con_dnn_c01_bottle_10_n04557648_18375.JPEG
vgg,5,1233,NaN,bottle,bottle,c01,6353_con_dnn_c01_bottle_10_n04557648_7601.JPEG
vgg,5,1234,NaN,clock,bottle,c01,6354_con_dnn_c01_bottle_10_n02823428_12656.JPEG
vgg,5,1235,NaN,boat,bottle,c01,6355_con_dnn_c01_bottle_10_n04591713_6210.JPEG
vgg,5,1236,NaN,clock,bottle,c01,6356_con_dnn_c01_bottle_10_n04557648_4009.JPEG
vgg,5,1237,NaN,boat,bottle,c01,6357_con_dnn_c01_bottle_10_n03983396_7722.JPEG
vgg,5,1238,NaN,bird,bottle,c01,6358_con_dnn_c01_bottle_10_n04557648_77.JPEG
vgg,5,1239,NaN,clock,bottle,c01,6359_con_dnn_c01_bottle_10_n03983396_7573.JPEG
vgg,5,1240,NaN,bird,bottle,c01,6360_con_dnn_c01_bottle_10_n02823428_12990.JPEG
vgg,5,1241,NaN,bird,truck,c01,6361_con_dnn_c01_truck_10_n03417042_6373.JPEG
vgg,5,1242,NaN,clock,truck,c01,6362_con_dnn_c01_truck_10_n03417042_9511.JPEG
vgg,5,1243,NaN,bird,truck,c01,6363_con_dnn_c01_truck_10_n04467665_4972.JPEG
vgg,5,1244,NaN,bird,truck,c01,6364_con_dnn_c01_truck_10_n03796401_9472.JPEG
vgg,5,1245,NaN,bird,truck,c01,6365_con_dnn_c01_truck_10_n04467665_11830.JPEG
vgg,5,1246,NaN,bird,truck,c01,6366_con_dnn_c01_truck_10_n03417042_10121.JPEG
vgg,5,1247,NaN,bird,truck,c01,6367_con_dnn_c01_truck_10_n04467665_68250.JPEG
vgg,5,1248,NaN,bird,truck,c01,6368_con_dnn_c01_truck_10_n03417042_8935.JPEG
vgg,5,1249,NaN,boat,truck,c01,6369_con_dnn_c01_truck_10_n03417042_27907.JPEG
vgg,5,1250,NaN,bird,truck,c01,6370_con_dnn_c01_truck_10_n03796401_8858.JPEG
vgg,5,1251,NaN,boat,car,c01,6371_con_dnn_c01_car_10_n02814533_2307.JPEG
vgg,5,1252,NaN,boat,car,c01,6372_con_dnn_c01_car_10_n03100240_9143.JPEG
vgg,5,1253,NaN,boat,car,c01,6373_con_dnn_c01_car_10_n03100240_13582.JPEG
vgg,5,1254,NaN,bird,car,c01,6374_con_dnn_c01_car_10_n03100240_14206.JPEG
vgg,5,1255,NaN,airplane,car,c01,6375_con_dnn_c01_car_10_n04285008_1584.JPEG
vgg,5,1256,NaN,bird,car,c01,6376_con_dnn_c01_car_10_n02814533_9936.JPEG
vgg,5,1257,NaN,bird,car,c01,6377_con_dnn_c01_car_10_n02814533_74176.JPEG
vgg,5,1258,NaN,bird,car,c01,6378_con_dnn_c01_car_10_n04285008_5371.JPEG
vgg,5,1259,NaN,bird,car,c01,6379_con_dnn_c01_car_10_n02814533_96013.JPEG
vgg,5,1260,NaN,bird,car,c01,6380_con_dnn_c01_car_10_n04285008_6037.JPEG
vgg,5,1261,NaN,bird,bird,c01,6381_con_dnn_c01_bird_10_n01855672_25633.JPEG
vgg,5,1262,NaN,bird,bird,c01,6382_con_dnn_c01_bird_10_n02027492_1483.JPEG
vgg,5,1263,NaN,boat,bird,c01,6383_con_dnn_c01_bird_10_n01592084_4328.JPEG
vgg,5,1264,NaN,boat,bird,c01,6384_con_dnn_c01_bird_10_n02051845_372.JPEG
vgg,5,1265,NaN,bird,bird,c01,6385_con_dnn_c01_bird_10_n02017213_15343.JPEG
vgg,5,1266,NaN,boat,bird,c01,6386_con_dnn_c01_bird_10_n01560419_6379.JPEG
vgg,5,1267,NaN,airplane,bird,c01,6387_con_dnn_c01_bird_10_n01829413_5173.JPEG
vgg,5,1268,NaN,boat,bird,c01,6388_con_dnn_c01_bird_10_n01616318_13745.JPEG
vgg,5,1269,NaN,airplane,bird,c01,6389_con_dnn_c01_bird_10_n01855032_4840.JPEG
vgg,5,1270,NaN,boat,bird,c01,6390_con_dnn_c01_bird_10_n01843383_4404.JPEG
vgg,5,1271,NaN,airplane,dog,c01,6391_con_dnn_c01_dog_10_n02106166_4285.JPEG
vgg,5,1272,NaN,bird,dog,c01,6392_con_dnn_c01_dog_10_n02094114_8655.JPEG
vgg,5,1273,NaN,boat,dog,c01,6393_con_dnn_c01_dog_10_n02091244_1579.JPEG
vgg,5,1274,NaN,boat,dog,c01,6394_con_dnn_c01_dog_10_n02101388_3083.JPEG
vgg,5,1275,NaN,airplane,dog,c01,6395_con_dnn_c01_dog_10_n02107908_7626.JPEG
vgg,5,1276,NaN,bird,dog,c01,6396_con_dnn_c01_dog_10_n02113978_7862.JPEG
vgg,5,1277,NaN,airplane,dog,c01,6397_con_dnn_c01_dog_10_n02102177_4030.JPEG
vgg,5,1278,NaN,airplane,dog,c01,6398_con_dnn_c01_dog_10_n02105855_5072.JPEG
vgg,5,1279,NaN,boat,dog,c01,6399_con_dnn_c01_dog_10_n02088632_369.JPEG
vgg,5,1280,NaN,boat,dog,c01,6400_con_dnn_c01_dog_10_n02096585_7968.JPEG
