subj,session,trial,rt,object_response,category,condition,imagename
vgg,3,1,NaN,oven,knife,c100,2561_cop_dnn_c100_knife_10_n03041632_29886.png
vgg,3,2,NaN,bottle,knife,c100,2562_cop_dnn_c100_knife_10_n03041632_46103.png
vgg,3,3,NaN,bicycle,knife,c100,2563_cop_dnn_c100_knife_10_n03041632_82197.png
vgg,3,4,NaN,knife,knife,c100,2564_cop_dnn_c100_knife_10_n03041632_3101.png
vgg,3,5,NaN,knife,knife,c100,2565_cop_dnn_c100_knife_10_n03041632_94202.png
vgg,3,6,NaN,knife,knife,c100,2566_cop_dnn_c100_knife_10_n03041632_38433.png
vgg,3,7,NaN,knife,knife,c100,2567_cop_dnn_c100_knife_10_n03041632_16104.png
vgg,3,8,NaN,knife,knife,c100,2568_cop_dnn_c100_knife_10_n03041632_8666.png
vgg,3,9,NaN,knife,knife,c100,2569_cop_dnn_c100_knife_10_n03041632_10000.png
vgg,3,10,NaN,knife,knife,c100,2570_cop_dnn_c100_knife_10_n03041632_7707.png
vgg,3,11,NaN,keyboard,keyboard,c100,2571_cop_dnn_c100_keyboard_10_n04505470_5145.png
vgg,3,12,NaN,keyboard,keyboard,c100,2572_cop_dnn_c100_keyboard_10_n03085013_14237.png
vgg,3,13,NaN,keyboard,keyboard,c100,2573_cop_dnn_c100_keyboard_10_n04505470_3852.png
vgg,3,14,NaN,keyboard,keyboard,c100,2574_cop_dnn_c100_keyboard_10_n03085013_5349.png
vgg,3,15,NaN,keyboard,keyboard,c100,2575_cop_dnn_c100_keyboard_10_n04505470_2130.png
vgg,3,16,NaN,keyboard,keyboard,c100,2576_cop_dnn_c100_keyboard_10_n04505470_2035.png
vgg,3,17,NaN,keyboard,keyboard,c100,2577_cop_dnn_c100_keyboard_10_n03085013_21339.png
vgg,3,18,NaN,keyboard,keyboard,c100,2578_cop_dnn_c100_keyboard_10_n03085013_21615.png
vgg,3,19,NaN,keyboard,keyboard,c100,2579_cop_dnn_c100_keyboard_10_n03085013_24257.png
vgg,3,20,NaN,keyboard,keyboard,c100,2580_cop_dnn_c100_keyboard_10_n04505470_2109.png
vgg,3,21,NaN,elephant,elephant,c100,2581_cop_dnn_c100_elephant_10_n02504458_863.png
vgg,3,22,NaN,elephant,elephant,c100,2582_cop_dnn_c100_elephant_10_n02504013_5225.png
vgg,3,23,NaN,elephant,elephant,c100,2583_cop_dnn_c100_elephant_10_n02504458_6464.png
vgg,3,24,NaN,elephant,elephant,c100,2584_cop_dnn_c100_elephant_10_n02504458_7835.png
vgg,3,25,NaN,elephant,elephant,c100,2585_cop_dnn_c100_elephant_10_n02504013_1187.png
vgg,3,26,NaN,elephant,elephant,c100,2586_cop_dnn_c100_elephant_10_n02504013_319.png
vgg,3,27,NaN,elephant,elephant,c100,2587_cop_dnn_c100_elephant_10_n02504013_4436.png
vgg,3,28,NaN,elephant,elephant,c100,2588_cop_dnn_c100_elephant_10_n02504458_4564.png
vgg,3,29,NaN,elephant,elephant,c100,2589_cop_dnn_c100_elephant_10_n02504013_24713.png
vgg,3,30,NaN,elephant,elephant,c100,2590_cop_dnn_c100_elephant_10_n02504458_2835.png
vgg,3,31,NaN,bicycle,bicycle,c100,2591_cop_dnn_c100_bicycle_10_n03792782_16443.png
vgg,3,32,NaN,bicycle,bicycle,c100,2592_cop_dnn_c100_bicycle_10_n03792782_24591.png
vgg,3,33,NaN,bicycle,bicycle,c100,2593_cop_dnn_c100_bicycle_10_n03792782_51686.png
vgg,3,34,NaN,bicycle,bicycle,c100,2594_cop_dnn_c100_bicycle_10_n02835271_14499.png
vgg,3,35,NaN,bicycle,bicycle,c100,2595_cop_dnn_c100_bicycle_10_n03792782_6133.png
vgg,3,36,NaN,dog,bicycle,c100,2596_cop_dnn_c100_bicycle_10_n03792782_13110.png
vgg,3,37,NaN,bicycle,bicycle,c100,2597_cop_dnn_c100_bicycle_10_n02835271_8498.png
vgg,3,38,NaN,bicycle,bicycle,c100,2598_cop_dnn_c100_bicycle_10_n02835271_6923.png
vgg,3,39,NaN,bicycle,bicycle,c100,2599_cop_dnn_c100_bicycle_10_n02835271_10293.png
vgg,3,40,NaN,bicycle,bicycle,c100,2600_cop_dnn_c100_bicycle_10_n03792782_5699.png
vgg,3,41,NaN,airplane,airplane,c100,2601_cop_dnn_c100_airplane_10_n02690373_1233.png
vgg,3,42,NaN,airplane,airplane,c100,2602_cop_dnn_c100_airplane_10_n02690373_2758.png
vgg,3,43,NaN,airplane,airplane,c100,2603_cop_dnn_c100_airplane_10_n02690373_5056.png
vgg,3,44,NaN,airplane,airplane,c100,2604_cop_dnn_c100_airplane_10_n02690373_3907.png
vgg,3,45,NaN,airplane,airplane,c100,2605_cop_dnn_c100_airplane_10_n02690373_848.png
vgg,3,46,NaN,airplane,airplane,c100,2606_cop_dnn_c100_airplane_10_n02690373_6147.png
vgg,3,47,NaN,airplane,airplane,c100,2607_cop_dnn_c100_airplane_10_n02690373_3827.png
vgg,3,48,NaN,airplane,airplane,c100,2608_cop_dnn_c100_airplane_10_n02690373_9720.png
vgg,3,49,NaN,airplane,airplane,c100,2609_cop_dnn_c100_airplane_10_n02690373_1351.png
vgg,3,50,NaN,airplane,airplane,c100,2610_cop_dnn_c100_airplane_10_n02690373_15966.png
vgg,3,51,NaN,clock,clock,c100,2611_cop_dnn_c100_clock_10_n02708093_725.png
vgg,3,52,NaN,clock,clock,c100,2612_cop_dnn_c100_clock_10_n02708093_3289.png
vgg,3,53,NaN,clock,clock,c100,2613_cop_dnn_c100_clock_10_n03196217_8254.png
vgg,3,54,NaN,clock,clock,c100,2614_cop_dnn_c100_clock_10_n03196217_2639.png
vgg,3,55,NaN,clock,clock,c100,2615_cop_dnn_c100_clock_10_n03196217_108.png
vgg,3,56,NaN,clock,clock,c100,2616_cop_dnn_c100_clock_10_n02708093_4289.png
vgg,3,57,NaN,clock,clock,c100,2617_cop_dnn_c100_clock_10_n02708093_451.png
vgg,3,58,NaN,clock,clock,c100,2618_cop_dnn_c100_clock_10_n04548280_662.png
vgg,3,59,NaN,clock,clock,c100,2619_cop_dnn_c100_clock_10_n04548280_6039.png
vgg,3,60,NaN,clock,clock,c100,2620_cop_dnn_c100_clock_10_n03196217_2695.png
vgg,3,61,NaN,bird,oven,c100,2621_cop_dnn_c100_oven_10_n04111531_6933.png
vgg,3,62,NaN,oven,oven,c100,2622_cop_dnn_c100_oven_10_n04111531_2650.png
vgg,3,63,NaN,truck,oven,c100,2623_cop_dnn_c100_oven_10_n04111531_2592.png
vgg,3,64,NaN,oven,oven,c100,2624_cop_dnn_c100_oven_10_n04111531_1898.png
vgg,3,65,NaN,oven,oven,c100,2625_cop_dnn_c100_oven_10_n04111531_9881.png
vgg,3,66,NaN,oven,oven,c100,2626_cop_dnn_c100_oven_10_n04111531_21011.png
vgg,3,67,NaN,oven,oven,c100,2627_cop_dnn_c100_oven_10_n04111531_21173.png
vgg,3,68,NaN,oven,oven,c100,2628_cop_dnn_c100_oven_10_n04111531_2024.png
vgg,3,69,NaN,oven,oven,c100,2629_cop_dnn_c100_oven_10_n04111531_23668.png
vgg,3,70,NaN,chair,oven,c100,2630_cop_dnn_c100_oven_10_n04111531_9208.png
vgg,3,71,NaN,chair,chair,c100,2631_cop_dnn_c100_chair_10_n04429376_5202.png
vgg,3,72,NaN,chair,chair,c100,2632_cop_dnn_c100_chair_10_n04429376_18227.png
vgg,3,73,NaN,chair,chair,c100,2633_cop_dnn_c100_chair_10_n04429376_4601.png
vgg,3,74,NaN,chair,chair,c100,2634_cop_dnn_c100_chair_10_n04099969_51294.png
vgg,3,75,NaN,chair,chair,c100,2635_cop_dnn_c100_chair_10_n02791124_1437.png
vgg,3,76,NaN,chair,chair,c100,2636_cop_dnn_c100_chair_10_n02791124_15790.png
vgg,3,77,NaN,chair,chair,c100,2637_cop_dnn_c100_chair_10_n04429376_18301.png
vgg,3,78,NaN,chair,chair,c100,2638_cop_dnn_c100_chair_10_n02791124_2804.png
vgg,3,79,NaN,chair,chair,c100,2639_cop_dnn_c100_chair_10_n03376595_18690.png
vgg,3,80,NaN,chair,chair,c100,2640_cop_dnn_c100_chair_10_n02791124_690.png
vgg,3,81,NaN,bear,bear,c100,2641_cop_dnn_c100_bear_10_n02133161_1703.png
vgg,3,82,NaN,bear,bear,c100,2642_cop_dnn_c100_bear_10_n02134084_965.png
vgg,3,83,NaN,bear,bear,c100,2643_cop_dnn_c100_bear_10_n02134418_5976.png
vgg,3,84,NaN,bear,bear,c100,2644_cop_dnn_c100_bear_10_n02134084_5903.png
vgg,3,85,NaN,bear,bear,c100,2645_cop_dnn_c100_bear_10_n02134418_2044.png
vgg,3,86,NaN,bear,bear,c100,2646_cop_dnn_c100_bear_10_n02133161_8982.png
vgg,3,87,NaN,bear,bear,c100,2647_cop_dnn_c100_bear_10_n02132136_4849.png
vgg,3,88,NaN,dog,bear,c100,2648_cop_dnn_c100_bear_10_n02134418_1076.png
vgg,3,89,NaN,bear,bear,c100,2649_cop_dnn_c100_bear_10_n02133161_4272.png
vgg,3,90,NaN,bear,bear,c100,2650_cop_dnn_c100_bear_10_n02133161_1739.png
vgg,3,91,NaN,boat,boat,c100,2651_cop_dnn_c100_boat_10_n02951358_15876.png
vgg,3,92,NaN,boat,boat,c100,2652_cop_dnn_c100_boat_10_n04612504_39743.png
vgg,3,93,NaN,boat,boat,c100,2653_cop_dnn_c100_boat_10_n03344393_1699.png
vgg,3,94,NaN,boat,boat,c100,2654_cop_dnn_c100_boat_10_n03662601_13156.png
vgg,3,95,NaN,boat,boat,c100,2655_cop_dnn_c100_boat_10_n04612504_8958.png
vgg,3,96,NaN,boat,boat,c100,2656_cop_dnn_c100_boat_10_n02951358_30100.png
vgg,3,97,NaN,boat,boat,c100,2657_cop_dnn_c100_boat_10_n03344393_5798.png
vgg,3,98,NaN,boat,boat,c100,2658_cop_dnn_c100_boat_10_n03662601_8410.png
vgg,3,99,NaN,boat,boat,c100,2659_cop_dnn_c100_boat_10_n03344393_3337.png
vgg,3,100,NaN,boat,boat,c100,2660_cop_dnn_c100_boat_10_n04273569_5826.png
vgg,3,101,NaN,cat,cat,c100,2661_cop_dnn_c100_cat_10_n02123045_3551.png
vgg,3,102,NaN,cat,cat,c100,2662_cop_dnn_c100_cat_10_n02123597_4223.png
vgg,3,103,NaN,cat,cat,c100,2663_cop_dnn_c100_cat_10_n02123045_8630.png
vgg,3,104,NaN,cat,cat,c100,2664_cop_dnn_c100_cat_10_n02123045_6534.png
vgg,3,105,NaN,cat,cat,c100,2665_cop_dnn_c100_cat_10_n02124075_2289.png
vgg,3,106,NaN,cat,cat,c100,2666_cop_dnn_c100_cat_10_n02123597_11529.png
vgg,3,107,NaN,cat,cat,c100,2667_cop_dnn_c100_cat_10_n02123045_6618.png
vgg,3,108,NaN,cat,cat,c100,2668_cop_dnn_c100_cat_10_n02125311_5424.png
vgg,3,109,NaN,cat,cat,c100,2669_cop_dnn_c100_cat_10_n02123045_9779.png
vgg,3,110,NaN,bicycle,cat,c100,2670_cop_dnn_c100_cat_10_n02123597_2188.png
vgg,3,111,NaN,bottle,bottle,c100,2671_cop_dnn_c100_bottle_10_n03937543_3108.png
vgg,3,112,NaN,bottle,bottle,c100,2672_cop_dnn_c100_bottle_10_n04591713_7672.png
vgg,3,113,NaN,bird,bottle,c100,2673_cop_dnn_c100_bottle_10_n04557648_11577.png
vgg,3,114,NaN,bottle,bottle,c100,2674_cop_dnn_c100_bottle_10_n03937543_3511.png
vgg,3,115,NaN,bottle,bottle,c100,2675_cop_dnn_c100_bottle_10_n04560804_15963.png
vgg,3,116,NaN,bottle,bottle,c100,2676_cop_dnn_c100_bottle_10_n03983396_1090.png
vgg,3,117,NaN,bottle,bottle,c100,2677_cop_dnn_c100_bottle_10_n02823428_3469.png
vgg,3,118,NaN,bottle,bottle,c100,2678_cop_dnn_c100_bottle_10_n04557648_993.png
vgg,3,119,NaN,bottle,bottle,c100,2679_cop_dnn_c100_bottle_10_n02823428_937.png
vgg,3,120,NaN,bottle,bottle,c100,2680_cop_dnn_c100_bottle_10_n03983396_15493.png
vgg,3,121,NaN,truck,truck,c100,2681_cop_dnn_c100_truck_10_n04467665_69878.png
vgg,3,122,NaN,truck,truck,c100,2682_cop_dnn_c100_truck_10_n04467665_4239.png
vgg,3,123,NaN,truck,truck,c100,2683_cop_dnn_c100_truck_10_n04467665_49389.png
vgg,3,124,NaN,truck,truck,c100,2684_cop_dnn_c100_truck_10_n03796401_6487.png
vgg,3,125,NaN,truck,truck,c100,2685_cop_dnn_c100_truck_10_n03417042_4560.png
vgg,3,126,NaN,truck,truck,c100,2686_cop_dnn_c100_truck_10_n03417042_768.png
vgg,3,127,NaN,truck,truck,c100,2687_cop_dnn_c100_truck_10_n04467665_73773.png
vgg,3,128,NaN,truck,truck,c100,2688_cop_dnn_c100_truck_10_n04467665_1411.png
vgg,3,129,NaN,truck,truck,c100,2689_cop_dnn_c100_truck_10_n04467665_37526.png
vgg,3,130,NaN,truck,truck,c100,2690_cop_dnn_c100_truck_10_n03417042_2726.png
vgg,3,131,NaN,car,car,c100,2691_cop_dnn_c100_car_10_n04285008_8443.png
vgg,3,132,NaN,car,car,c100,2692_cop_dnn_c100_car_10_n03100240_15979.png
vgg,3,133,NaN,car,car,c100,2693_cop_dnn_c100_car_10_n03100240_22290.png
vgg,3,134,NaN,car,car,c100,2694_cop_dnn_c100_car_10_n02814533_1881.png
vgg,3,135,NaN,car,car,c100,2695_cop_dnn_c100_car_10_n03100240_21521.png
vgg,3,136,NaN,car,car,c100,2696_cop_dnn_c100_car_10_n02814533_479.png
vgg,3,137,NaN,car,car,c100,2697_cop_dnn_c100_car_10_n03100240_18410.png
vgg,3,138,NaN,car,car,c100,2698_cop_dnn_c100_car_10_n04285008_4969.png
vgg,3,139,NaN,car,car,c100,2699_cop_dnn_c100_car_10_n04285008_5399.png
vgg,3,140,NaN,car,car,c100,2700_cop_dnn_c100_car_10_n03100240_7946.png
vgg,3,141,NaN,bird,bird,c100,2701_cop_dnn_c100_bird_10_n01817953_585.png
vgg,3,142,NaN,bird,bird,c100,2702_cop_dnn_c100_bird_10_n01798484_1883.png
vgg,3,143,NaN,bird,bird,c100,2703_cop_dnn_c100_bird_10_n01843383_8740.png
vgg,3,144,NaN,bird,bird,c100,2704_cop_dnn_c100_bird_10_n01622779_13837.png
vgg,3,145,NaN,dog,bird,c100,2705_cop_dnn_c100_bird_10_n01601694_22768.png
vgg,3,146,NaN,bird,bird,c100,2706_cop_dnn_c100_bird_10_n01534433_5179.png
vgg,3,147,NaN,bird,bird,c100,2707_cop_dnn_c100_bird_10_n01820546_1427.png
vgg,3,148,NaN,bird,bird,c100,2708_cop_dnn_c100_bird_10_n01843383_11555.png
vgg,3,149,NaN,bird,bird,c100,2709_cop_dnn_c100_bird_10_n02017213_5600.png
vgg,3,150,NaN,bird,bird,c100,2710_cop_dnn_c100_bird_10_n01829413_6443.png
vgg,3,151,NaN,dog,dog,c100,2711_cop_dnn_c100_dog_10_n02107908_10427.png
vgg,3,152,NaN,dog,dog,c100,2712_cop_dnn_c100_dog_10_n02108422_7787.png
vgg,3,153,NaN,dog,dog,c100,2713_cop_dnn_c100_dog_10_n02093754_541.png
vgg,3,154,NaN,dog,dog,c100,2714_cop_dnn_c100_dog_10_n02098105_386.png
vgg,3,155,NaN,dog,dog,c100,2715_cop_dnn_c100_dog_10_n02091244_7605.png
vgg,3,156,NaN,dog,dog,c100,2716_cop_dnn_c100_dog_10_n02107683_3133.png
vgg,3,157,NaN,dog,dog,c100,2717_cop_dnn_c100_dog_10_n02094114_2625.png
vgg,3,158,NaN,dog,dog,c100,2718_cop_dnn_c100_dog_10_n02100236_485.png
vgg,3,159,NaN,dog,dog,c100,2719_cop_dnn_c100_dog_10_n02105056_4232.png
vgg,3,160,NaN,dog,dog,c100,2720_cop_dnn_c100_dog_10_n02095570_11034.png
vgg,3,161,NaN,knife,knife,c50,2721_cop_dnn_c50_knife_10_n03041632_15754.png
vgg,3,162,NaN,chair,knife,c50,2722_cop_dnn_c50_knife_10_n03041632_22964.png
vgg,3,163,NaN,knife,knife,c50,2723_cop_dnn_c50_knife_10_n03041632_22286.png
vgg,3,164,NaN,knife,knife,c50,2724_cop_dnn_c50_knife_10_n03041632_40508.png
vgg,3,165,NaN,knife,knife,c50,2725_cop_dnn_c50_knife_10_n03041632_44738.png
vgg,3,166,NaN,knife,knife,c50,2726_cop_dnn_c50_knife_10_n03041632_9488.png
vgg,3,167,NaN,knife,knife,c50,2727_cop_dnn_c50_knife_10_n03041632_21165.png
vgg,3,168,NaN,knife,knife,c50,2728_cop_dnn_c50_knife_10_n03041632_24798.png
vgg,3,169,NaN,knife,knife,c50,2729_cop_dnn_c50_knife_10_n03041632_4037.png
vgg,3,170,NaN,knife,knife,c50,2730_cop_dnn_c50_knife_10_n03041632_77022.png
vgg,3,171,NaN,keyboard,keyboard,c50,2731_cop_dnn_c50_keyboard_10_n04505470_5111.png
vgg,3,172,NaN,keyboard,keyboard,c50,2732_cop_dnn_c50_keyboard_10_n04505470_4906.png
vgg,3,173,NaN,keyboard,keyboard,c50,2733_cop_dnn_c50_keyboard_10_n03085013_15081.png
vgg,3,174,NaN,keyboard,keyboard,c50,2734_cop_dnn_c50_keyboard_10_n03085013_8867.png
vgg,3,175,NaN,chair,keyboard,c50,2735_cop_dnn_c50_keyboard_10_n03085013_24111.png
vgg,3,176,NaN,keyboard,keyboard,c50,2736_cop_dnn_c50_keyboard_10_n03085013_23563.png
vgg,3,177,NaN,keyboard,keyboard,c50,2737_cop_dnn_c50_keyboard_10_n04505470_5007.png
vgg,3,178,NaN,keyboard,keyboard,c50,2738_cop_dnn_c50_keyboard_10_n03085013_3815.png
vgg,3,179,NaN,keyboard,keyboard,c50,2739_cop_dnn_c50_keyboard_10_n03085013_8325.png
vgg,3,180,NaN,keyboard,keyboard,c50,2740_cop_dnn_c50_keyboard_10_n03085013_18907.png
vgg,3,181,NaN,elephant,elephant,c50,2741_cop_dnn_c50_elephant_10_n02504458_1502.png
vgg,3,182,NaN,elephant,elephant,c50,2742_cop_dnn_c50_elephant_10_n02504458_1333.png
vgg,3,183,NaN,elephant,elephant,c50,2743_cop_dnn_c50_elephant_10_n02504013_18988.png
vgg,3,184,NaN,dog,elephant,c50,2744_cop_dnn_c50_elephant_10_n02504013_22740.png
vgg,3,185,NaN,elephant,elephant,c50,2745_cop_dnn_c50_elephant_10_n02504013_7046.png
vgg,3,186,NaN,elephant,elephant,c50,2746_cop_dnn_c50_elephant_10_n02504013_8905.png
vgg,3,187,NaN,elephant,elephant,c50,2747_cop_dnn_c50_elephant_10_n02504013_7553.png
vgg,3,188,NaN,elephant,elephant,c50,2748_cop_dnn_c50_elephant_10_n02504013_1251.png
vgg,3,189,NaN,elephant,elephant,c50,2749_cop_dnn_c50_elephant_10_n02504013_5593.png
vgg,3,190,NaN,elephant,elephant,c50,2750_cop_dnn_c50_elephant_10_n02504458_4448.png
vgg,3,191,NaN,bicycle,bicycle,c50,2751_cop_dnn_c50_bicycle_10_n03792782_26289.png
vgg,3,192,NaN,bicycle,bicycle,c50,2752_cop_dnn_c50_bicycle_10_n02835271_8982.png
vgg,3,193,NaN,bicycle,bicycle,c50,2753_cop_dnn_c50_bicycle_10_n03792782_32232.png
vgg,3,194,NaN,bicycle,bicycle,c50,2754_cop_dnn_c50_bicycle_10_n03792782_35904.png
vgg,3,195,NaN,bicycle,bicycle,c50,2755_cop_dnn_c50_bicycle_10_n02835271_8287.png
vgg,3,196,NaN,bicycle,bicycle,c50,2756_cop_dnn_c50_bicycle_10_n02835271_12903.png
vgg,3,197,NaN,bicycle,bicycle,c50,2757_cop_dnn_c50_bicycle_10_n03792782_15616.png
vgg,3,198,NaN,bicycle,bicycle,c50,2758_cop_dnn_c50_bicycle_10_n03792782_1418.png
vgg,3,199,NaN,bicycle,bicycle,c50,2759_cop_dnn_c50_bicycle_10_n03792782_15757.png
vgg,3,200,NaN,bicycle,bicycle,c50,2760_cop_dnn_c50_bicycle_10_n03792782_6926.png
vgg,3,201,NaN,airplane,airplane,c50,2761_cop_dnn_c50_airplane_10_n02690373_1492.png
vgg,3,202,NaN,airplane,airplane,c50,2762_cop_dnn_c50_airplane_10_n02690373_9241.png
vgg,3,203,NaN,airplane,airplane,c50,2763_cop_dnn_c50_airplane_10_n02690373_12964.png
vgg,3,204,NaN,airplane,airplane,c50,2764_cop_dnn_c50_airplane_10_n02690373_19118.png
vgg,3,205,NaN,airplane,airplane,c50,2765_cop_dnn_c50_airplane_10_n02690373_4079.png
vgg,3,206,NaN,airplane,airplane,c50,2766_cop_dnn_c50_airplane_10_n02690373_4191.png
vgg,3,207,NaN,airplane,airplane,c50,2767_cop_dnn_c50_airplane_10_n02690373_4588.png
vgg,3,208,NaN,airplane,airplane,c50,2768_cop_dnn_c50_airplane_10_n02690373_3408.png
vgg,3,209,NaN,airplane,airplane,c50,2769_cop_dnn_c50_airplane_10_n02690373_3669.png
vgg,3,210,NaN,airplane,airplane,c50,2770_cop_dnn_c50_airplane_10_n02690373_6856.png
vgg,3,211,NaN,clock,clock,c50,2771_cop_dnn_c50_clock_10_n04548280_4670.png
vgg,3,212,NaN,clock,clock,c50,2772_cop_dnn_c50_clock_10_n02708093_6918.png
vgg,3,213,NaN,clock,clock,c50,2773_cop_dnn_c50_clock_10_n04548280_8990.png
vgg,3,214,NaN,clock,clock,c50,2774_cop_dnn_c50_clock_10_n02708093_5734.png
vgg,3,215,NaN,keyboard,clock,c50,2775_cop_dnn_c50_clock_10_n04548280_4841.png
vgg,3,216,NaN,clock,clock,c50,2776_cop_dnn_c50_clock_10_n02708093_2512.png
vgg,3,217,NaN,clock,clock,c50,2777_cop_dnn_c50_clock_10_n02708093_1427.png
vgg,3,218,NaN,clock,clock,c50,2778_cop_dnn_c50_clock_10_n03196217_658.png
vgg,3,219,NaN,clock,clock,c50,2779_cop_dnn_c50_clock_10_n04548280_1016.png
vgg,3,220,NaN,clock,clock,c50,2780_cop_dnn_c50_clock_10_n03196217_3943.png
vgg,3,221,NaN,oven,oven,c50,2781_cop_dnn_c50_oven_10_n04111531_5473.png
vgg,3,222,NaN,oven,oven,c50,2782_cop_dnn_c50_oven_10_n04111531_20099.png
vgg,3,223,NaN,oven,oven,c50,2783_cop_dnn_c50_oven_10_n04111531_18245.png
vgg,3,224,NaN,oven,oven,c50,2784_cop_dnn_c50_oven_10_n04111531_7072.png
vgg,3,225,NaN,chair,oven,c50,2785_cop_dnn_c50_oven_10_n04111531_15710.png
vgg,3,226,NaN,oven,oven,c50,2786_cop_dnn_c50_oven_10_n04111531_9308.png
vgg,3,227,NaN,oven,oven,c50,2787_cop_dnn_c50_oven_10_n04111531_16583.png
vgg,3,228,NaN,oven,oven,c50,2788_cop_dnn_c50_oven_10_n04111531_2960.png
vgg,3,229,NaN,chair,oven,c50,2789_cop_dnn_c50_oven_10_n04111531_10884.png
vgg,3,230,NaN,oven,oven,c50,2790_cop_dnn_c50_oven_10_n04111531_5940.png
vgg,3,231,NaN,chair,chair,c50,2791_cop_dnn_c50_chair_10_n04099969_1852.png
vgg,3,232,NaN,chair,chair,c50,2792_cop_dnn_c50_chair_10_n04099969_5584.png
vgg,3,233,NaN,chair,chair,c50,2793_cop_dnn_c50_chair_10_n03376595_697.png
vgg,3,234,NaN,chair,chair,c50,2794_cop_dnn_c50_chair_10_n02791124_121.png
vgg,3,235,NaN,chair,chair,c50,2795_cop_dnn_c50_chair_10_n04099969_14091.png
vgg,3,236,NaN,chair,chair,c50,2796_cop_dnn_c50_chair_10_n03376595_130.png
vgg,3,237,NaN,chair,chair,c50,2797_cop_dnn_c50_chair_10_n04099969_14610.png
vgg,3,238,NaN,chair,chair,c50,2798_cop_dnn_c50_chair_10_n02791124_11456.png
vgg,3,239,NaN,chair,chair,c50,2799_cop_dnn_c50_chair_10_n03376595_7035.png
vgg,3,240,NaN,chair,chair,c50,2800_cop_dnn_c50_chair_10_n04429376_5159.png
vgg,3,241,NaN,bear,bear,c50,2801_cop_dnn_c50_bear_10_n02132136_3635.png
vgg,3,242,NaN,bear,bear,c50,2802_cop_dnn_c50_bear_10_n02133161_491.png
vgg,3,243,NaN,bear,bear,c50,2803_cop_dnn_c50_bear_10_n02134418_541.png
vgg,3,244,NaN,bear,bear,c50,2804_cop_dnn_c50_bear_10_n02132136_23589.png
vgg,3,245,NaN,bear,bear,c50,2805_cop_dnn_c50_bear_10_n02134084_5827.png
vgg,3,246,NaN,bear,bear,c50,2806_cop_dnn_c50_bear_10_n02134418_4189.png
vgg,3,247,NaN,bear,bear,c50,2807_cop_dnn_c50_bear_10_n02132136_2567.png
vgg,3,248,NaN,bear,bear,c50,2808_cop_dnn_c50_bear_10_n02134418_282.png
vgg,3,249,NaN,bear,bear,c50,2809_cop_dnn_c50_bear_10_n02132136_6607.png
vgg,3,250,NaN,bear,bear,c50,2810_cop_dnn_c50_bear_10_n02134418_745.png
vgg,3,251,NaN,boat,boat,c50,2811_cop_dnn_c50_boat_10_n03662601_557.png
vgg,3,252,NaN,boat,boat,c50,2812_cop_dnn_c50_boat_10_n02951358_12987.png
vgg,3,253,NaN,boat,boat,c50,2813_cop_dnn_c50_boat_10_n02951358_12027.png
vgg,3,254,NaN,boat,boat,c50,2814_cop_dnn_c50_boat_10_n04273569_39.png
vgg,3,255,NaN,boat,boat,c50,2815_cop_dnn_c50_boat_10_n03344393_4341.png
vgg,3,256,NaN,boat,boat,c50,2816_cop_dnn_c50_boat_10_n02951358_12897.png
vgg,3,257,NaN,boat,boat,c50,2817_cop_dnn_c50_boat_10_n04612504_5105.png
vgg,3,258,NaN,boat,boat,c50,2818_cop_dnn_c50_boat_10_n03662601_2150.png
vgg,3,259,NaN,boat,boat,c50,2819_cop_dnn_c50_boat_10_n03344393_8672.png
vgg,3,260,NaN,boat,boat,c50,2820_cop_dnn_c50_boat_10_n02951358_32930.png
vgg,3,261,NaN,cat,cat,c50,2821_cop_dnn_c50_cat_10_n02123597_9982.png
vgg,3,262,NaN,cat,cat,c50,2822_cop_dnn_c50_cat_10_n02124075_5902.png
vgg,3,263,NaN,dog,cat,c50,2823_cop_dnn_c50_cat_10_n02123597_10919.png
vgg,3,264,NaN,cat,cat,c50,2824_cop_dnn_c50_cat_10_n02125311_11409.png
vgg,3,265,NaN,cat,cat,c50,2825_cop_dnn_c50_cat_10_n02123045_20359.png
vgg,3,266,NaN,cat,cat,c50,2826_cop_dnn_c50_cat_10_n02124075_12467.png
vgg,3,267,NaN,dog,cat,c50,2827_cop_dnn_c50_cat_10_n02123159_8396.png
vgg,3,268,NaN,cat,cat,c50,2828_cop_dnn_c50_cat_10_n02123159_4182.png
vgg,3,269,NaN,cat,cat,c50,2829_cop_dnn_c50_cat_10_n02123394_4922.png
vgg,3,270,NaN,dog,cat,c50,2830_cop_dnn_c50_cat_10_n02123159_1789.png
vgg,3,271,NaN,bottle,bottle,c50,2831_cop_dnn_c50_bottle_10_n03983396_10060.png
vgg,3,272,NaN,bottle,bottle,c50,2832_cop_dnn_c50_bottle_10_n03937543_5703.png
vgg,3,273,NaN,bottle,bottle,c50,2833_cop_dnn_c50_bottle_10_n02823428_1272.png
vgg,3,274,NaN,dog,bottle,c50,2834_cop_dnn_c50_bottle_10_n03983396_5519.png
vgg,3,275,NaN,bottle,bottle,c50,2835_cop_dnn_c50_bottle_10_n03983396_12497.png
vgg,3,276,NaN,bottle,bottle,c50,2836_cop_dnn_c50_bottle_10_n03937543_6014.png
vgg,3,277,NaN,bottle,bottle,c50,2837_cop_dnn_c50_bottle_10_n04579145_2485.png
vgg,3,278,NaN,bottle,bottle,c50,2838_cop_dnn_c50_bottle_10_n03937543_4642.png
vgg,3,279,NaN,bottle,bottle,c50,2839_cop_dnn_c50_bottle_10_n02823428_7157.png
vgg,3,280,NaN,bottle,bottle,c50,2840_cop_dnn_c50_bottle_10_n04557648_7341.png
vgg,3,281,NaN,truck,truck,c50,2841_cop_dnn_c50_truck_10_n03796401_3210.png
vgg,3,282,NaN,truck,truck,c50,2842_cop_dnn_c50_truck_10_n03796401_20093.png
vgg,3,283,NaN,truck,truck,c50,2843_cop_dnn_c50_truck_10_n04467665_75078.png
vgg,3,284,NaN,truck,truck,c50,2844_cop_dnn_c50_truck_10_n03796401_7073.png
vgg,3,285,NaN,truck,truck,c50,2845_cop_dnn_c50_truck_10_n04467665_21266.png
vgg,3,286,NaN,truck,truck,c50,2846_cop_dnn_c50_truck_10_n04467665_8674.png
vgg,3,287,NaN,truck,truck,c50,2847_cop_dnn_c50_truck_10_n04467665_41163.png
vgg,3,288,NaN,truck,truck,c50,2848_cop_dnn_c50_truck_10_n03417042_5779.png
vgg,3,289,NaN,truck,truck,c50,2849_cop_dnn_c50_truck_10_n03796401_6675.png
vgg,3,290,NaN,truck,truck,c50,2850_cop_dnn_c50_truck_10_n03417042_24856.png
vgg,3,291,NaN,car,car,c50,2851_cop_dnn_c50_car_10_n02814533_95669.png
vgg,3,292,NaN,car,car,c50,2852_cop_dnn_c50_car_10_n02814533_34993.png
vgg,3,293,NaN,car,car,c50,2853_cop_dnn_c50_car_10_n02814533_78691.png
vgg,3,294,NaN,car,car,c50,2854_cop_dnn_c50_car_10_n04285008_7154.png
vgg,3,295,NaN,car,car,c50,2855_cop_dnn_c50_car_10_n04285008_11870.png
vgg,3,296,NaN,truck,car,c50,2856_cop_dnn_c50_car_10_n03100240_1989.png
vgg,3,297,NaN,car,car,c50,2857_cop_dnn_c50_car_10_n02814533_4687.png
vgg,3,298,NaN,car,car,c50,2858_cop_dnn_c50_car_10_n02814533_9634.png
vgg,3,299,NaN,car,car,c50,2859_cop_dnn_c50_car_10_n02814533_43509.png
vgg,3,300,NaN,car,car,c50,2860_cop_dnn_c50_car_10_n03100240_14740.png
vgg,3,301,NaN,bird,bird,c50,2861_cop_dnn_c50_bird_10_n02007558_10610.png
vgg,3,302,NaN,bird,bird,c50,2862_cop_dnn_c50_bird_10_n02007558_12974.png
vgg,3,303,NaN,bird,bird,c50,2863_cop_dnn_c50_bird_10_n01795545_16232.png
vgg,3,304,NaN,bird,bird,c50,2864_cop_dnn_c50_bird_10_n02056570_7495.png
vgg,3,305,NaN,bird,bird,c50,2865_cop_dnn_c50_bird_10_n01797886_1396.png
vgg,3,306,NaN,bird,bird,c50,2866_cop_dnn_c50_bird_10_n02007558_3792.png
vgg,3,307,NaN,bird,bird,c50,2867_cop_dnn_c50_bird_10_n01796340_4873.png
vgg,3,308,NaN,bird,bird,c50,2868_cop_dnn_c50_bird_10_n01558993_4054.png
vgg,3,309,NaN,bird,bird,c50,2869_cop_dnn_c50_bird_10_n02033041_1718.png
vgg,3,310,NaN,bird,bird,c50,2870_cop_dnn_c50_bird_10_n02033041_16258.png
vgg,3,311,NaN,dog,dog,c50,2871_cop_dnn_c50_dog_10_n02107908_1448.png
vgg,3,312,NaN,dog,dog,c50,2872_cop_dnn_c50_dog_10_n02093754_5270.png
vgg,3,313,NaN,dog,dog,c50,2873_cop_dnn_c50_dog_10_n02086646_3827.png
vgg,3,314,NaN,dog,dog,c50,2874_cop_dnn_c50_dog_10_n02113799_9137.png
vgg,3,315,NaN,dog,dog,c50,2875_cop_dnn_c50_dog_10_n02089867_8118.png
vgg,3,316,NaN,dog,dog,c50,2876_cop_dnn_c50_dog_10_n02096585_9480.png
vgg,3,317,NaN,dog,dog,c50,2877_cop_dnn_c50_dog_10_n02111129_4048.png
vgg,3,318,NaN,dog,dog,c50,2878_cop_dnn_c50_dog_10_n02088238_8708.png
vgg,3,319,NaN,dog,dog,c50,2879_cop_dnn_c50_dog_10_n02112018_6429.png
vgg,3,320,NaN,dog,dog,c50,2880_cop_dnn_c50_dog_10_n02091831_4635.png
vgg,3,321,NaN,chair,knife,c30,2881_cop_dnn_c30_knife_10_n03041632_18126.png
vgg,3,322,NaN,chair,knife,c30,2882_cop_dnn_c30_knife_10_n03041632_81471.png
vgg,3,323,NaN,chair,knife,c30,2883_cop_dnn_c30_knife_10_n03041632_13108.png
vgg,3,324,NaN,knife,knife,c30,2884_cop_dnn_c30_knife_10_n03041632_1607.png
vgg,3,325,NaN,knife,knife,c30,2885_cop_dnn_c30_knife_10_n03041632_32337.png
vgg,3,326,NaN,knife,knife,c30,2886_cop_dnn_c30_knife_10_n03041632_13742.png
vgg,3,327,NaN,knife,knife,c30,2887_cop_dnn_c30_knife_10_n03041632_43289.png
vgg,3,328,NaN,knife,knife,c30,2888_cop_dnn_c30_knife_10_n03041632_11797.png
vgg,3,329,NaN,knife,knife,c30,2889_cop_dnn_c30_knife_10_n03041632_22472.png
vgg,3,330,NaN,knife,knife,c30,2890_cop_dnn_c30_knife_10_n03041632_30565.png
vgg,3,331,NaN,keyboard,keyboard,c30,2891_cop_dnn_c30_keyboard_10_n03085013_31250.png
vgg,3,332,NaN,keyboard,keyboard,c30,2892_cop_dnn_c30_keyboard_10_n03085013_22713.png
vgg,3,333,NaN,keyboard,keyboard,c30,2893_cop_dnn_c30_keyboard_10_n03085013_23986.png
vgg,3,334,NaN,keyboard,keyboard,c30,2894_cop_dnn_c30_keyboard_10_n03085013_24309.png
vgg,3,335,NaN,keyboard,keyboard,c30,2895_cop_dnn_c30_keyboard_10_n04505470_4016.png
vgg,3,336,NaN,keyboard,keyboard,c30,2896_cop_dnn_c30_keyboard_10_n04505470_10859.png
vgg,3,337,NaN,keyboard,keyboard,c30,2897_cop_dnn_c30_keyboard_10_n03085013_2092.png
vgg,3,338,NaN,keyboard,keyboard,c30,2898_cop_dnn_c30_keyboard_10_n03085013_6432.png
vgg,3,339,NaN,keyboard,keyboard,c30,2899_cop_dnn_c30_keyboard_10_n03085013_24668.png
vgg,3,340,NaN,keyboard,keyboard,c30,2900_cop_dnn_c30_keyboard_10_n03085013_2277.png
vgg,3,341,NaN,elephant,elephant,c30,2901_cop_dnn_c30_elephant_10_n02504013_4846.png
vgg,3,342,NaN,elephant,elephant,c30,2902_cop_dnn_c30_elephant_10_n02504013_3258.png
vgg,3,343,NaN,elephant,elephant,c30,2903_cop_dnn_c30_elephant_10_n02504013_9401.png
vgg,3,344,NaN,elephant,elephant,c30,2904_cop_dnn_c30_elephant_10_n02504013_21542.png
vgg,3,345,NaN,elephant,elephant,c30,2905_cop_dnn_c30_elephant_10_n02504458_1464.png
vgg,3,346,NaN,elephant,elephant,c30,2906_cop_dnn_c30_elephant_10_n02504013_4674.png
vgg,3,347,NaN,elephant,elephant,c30,2907_cop_dnn_c30_elephant_10_n02504013_4444.png
vgg,3,348,NaN,elephant,elephant,c30,2908_cop_dnn_c30_elephant_10_n02504458_7845.png
vgg,3,349,NaN,elephant,elephant,c30,2909_cop_dnn_c30_elephant_10_n02504013_7147.png
vgg,3,350,NaN,elephant,elephant,c30,2910_cop_dnn_c30_elephant_10_n02504458_2339.png
vgg,3,351,NaN,bicycle,bicycle,c30,2911_cop_dnn_c30_bicycle_10_n02835271_759.png
vgg,3,352,NaN,dog,bicycle,c30,2912_cop_dnn_c30_bicycle_10_n03792782_15189.png
vgg,3,353,NaN,bicycle,bicycle,c30,2913_cop_dnn_c30_bicycle_10_n03792782_19744.png
vgg,3,354,NaN,bicycle,bicycle,c30,2914_cop_dnn_c30_bicycle_10_n02835271_14316.png
vgg,3,355,NaN,bicycle,bicycle,c30,2915_cop_dnn_c30_bicycle_10_n02835271_5956.png
vgg,3,356,NaN,bicycle,bicycle,c30,2916_cop_dnn_c30_bicycle_10_n02835271_7259.png
vgg,3,357,NaN,bicycle,bicycle,c30,2917_cop_dnn_c30_bicycle_10_n02835271_1016.png
vgg,3,358,NaN,bicycle,bicycle,c30,2918_cop_dnn_c30_bicycle_10_n03792782_13002.png
vgg,3,359,NaN,bicycle,bicycle,c30,2919_cop_dnn_c30_bicycle_10_n02835271_7096.png
vgg,3,360,NaN,bicycle,bicycle,c30,2920_cop_dnn_c30_bicycle_10_n02835271_8408.png
vgg,3,361,NaN,airplane,airplane,c30,2921_cop_dnn_c30_airplane_10_n02690373_7686.png
vgg,3,362,NaN,airplane,airplane,c30,2922_cop_dnn_c30_airplane_10_n02690373_21922.png
vgg,3,363,NaN,airplane,airplane,c30,2923_cop_dnn_c30_airplane_10_n02690373_939.png
vgg,3,364,NaN,airplane,airplane,c30,2924_cop_dnn_c30_airplane_10_n02690373_1434.png
vgg,3,365,NaN,airplane,airplane,c30,2925_cop_dnn_c30_airplane_10_n02690373_4055.png
vgg,3,366,NaN,airplane,airplane,c30,2926_cop_dnn_c30_airplane_10_n02690373_6614.png
vgg,3,367,NaN,airplane,airplane,c30,2927_cop_dnn_c30_airplane_10_n02690373_8382.png
vgg,3,368,NaN,airplane,airplane,c30,2928_cop_dnn_c30_airplane_10_n02690373_4233.png
vgg,3,369,NaN,airplane,airplane,c30,2929_cop_dnn_c30_airplane_10_n02690373_6988.png
vgg,3,370,NaN,airplane,airplane,c30,2930_cop_dnn_c30_airplane_10_n02690373_5204.png
vgg,3,371,NaN,clock,clock,c30,2931_cop_dnn_c30_clock_10_n02708093_3841.png
vgg,3,372,NaN,clock,clock,c30,2932_cop_dnn_c30_clock_10_n04548280_3038.png
vgg,3,373,NaN,clock,clock,c30,2933_cop_dnn_c30_clock_10_n03196217_8618.png
vgg,3,374,NaN,clock,clock,c30,2934_cop_dnn_c30_clock_10_n04548280_7370.png
vgg,3,375,NaN,clock,clock,c30,2935_cop_dnn_c30_clock_10_n03196217_1047.png
vgg,3,376,NaN,clock,clock,c30,2936_cop_dnn_c30_clock_10_n04548280_7944.png
vgg,3,377,NaN,clock,clock,c30,2937_cop_dnn_c30_clock_10_n04548280_3331.png
vgg,3,378,NaN,clock,clock,c30,2938_cop_dnn_c30_clock_10_n03196217_66.png
vgg,3,379,NaN,clock,clock,c30,2939_cop_dnn_c30_clock_10_n02708093_1775.png
vgg,3,380,NaN,clock,clock,c30,2940_cop_dnn_c30_clock_10_n03196217_1908.png
vgg,3,381,NaN,oven,oven,c30,2941_cop_dnn_c30_oven_10_n04111531_22120.png
vgg,3,382,NaN,oven,oven,c30,2942_cop_dnn_c30_oven_10_n04111531_16251.png
vgg,3,383,NaN,oven,oven,c30,2943_cop_dnn_c30_oven_10_n04111531_13797.png
vgg,3,384,NaN,oven,oven,c30,2944_cop_dnn_c30_oven_10_n04111531_4585.png
vgg,3,385,NaN,oven,oven,c30,2945_cop_dnn_c30_oven_10_n04111531_6084.png
vgg,3,386,NaN,oven,oven,c30,2946_cop_dnn_c30_oven_10_n04111531_8688.png
vgg,3,387,NaN,oven,oven,c30,2947_cop_dnn_c30_oven_10_n04111531_49.png
vgg,3,388,NaN,oven,oven,c30,2948_cop_dnn_c30_oven_10_n04111531_4785.png
vgg,3,389,NaN,dog,oven,c30,2949_cop_dnn_c30_oven_10_n04111531_15489.png
vgg,3,390,NaN,oven,oven,c30,2950_cop_dnn_c30_oven_10_n04111531_2575.png
vgg,3,391,NaN,chair,chair,c30,2951_cop_dnn_c30_chair_10_n02791124_3819.png
vgg,3,392,NaN,chair,chair,c30,2952_cop_dnn_c30_chair_10_n04099969_5598.png
vgg,3,393,NaN,chair,chair,c30,2953_cop_dnn_c30_chair_10_n03376595_9656.png
vgg,3,394,NaN,chair,chair,c30,2954_cop_dnn_c30_chair_10_n04429376_8902.png
vgg,3,395,NaN,chair,chair,c30,2955_cop_dnn_c30_chair_10_n04429376_10546.png
vgg,3,396,NaN,chair,chair,c30,2956_cop_dnn_c30_chair_10_n03376595_9237.png
vgg,3,397,NaN,chair,chair,c30,2957_cop_dnn_c30_chair_10_n04099969_20267.png
vgg,3,398,NaN,chair,chair,c30,2958_cop_dnn_c30_chair_10_n02791124_1088.png
vgg,3,399,NaN,chair,chair,c30,2959_cop_dnn_c30_chair_10_n03376595_14794.png
vgg,3,400,NaN,chair,chair,c30,2960_cop_dnn_c30_chair_10_n03376595_3069.png
vgg,3,401,NaN,dog,bear,c30,2961_cop_dnn_c30_bear_10_n02134084_1694.png
vgg,3,402,NaN,bear,bear,c30,2962_cop_dnn_c30_bear_10_n02132136_7586.png
vgg,3,403,NaN,bear,bear,c30,2963_cop_dnn_c30_bear_10_n02134084_21718.png
vgg,3,404,NaN,bear,bear,c30,2964_cop_dnn_c30_bear_10_n02134418_5251.png
vgg,3,405,NaN,dog,bear,c30,2965_cop_dnn_c30_bear_10_n02134418_163.png
vgg,3,406,NaN,bear,bear,c30,2966_cop_dnn_c30_bear_10_n02133161_11313.png
vgg,3,407,NaN,bear,bear,c30,2967_cop_dnn_c30_bear_10_n02132136_4179.png
vgg,3,408,NaN,bear,bear,c30,2968_cop_dnn_c30_bear_10_n02133161_8648.png
vgg,3,409,NaN,bear,bear,c30,2969_cop_dnn_c30_bear_10_n02134418_644.png
vgg,3,410,NaN,bear,bear,c30,2970_cop_dnn_c30_bear_10_n02132136_5346.png
vgg,3,411,NaN,boat,boat,c30,2971_cop_dnn_c30_boat_10_n04612504_3041.png
vgg,3,412,NaN,boat,boat,c30,2972_cop_dnn_c30_boat_10_n04273569_4327.png
vgg,3,413,NaN,boat,boat,c30,2973_cop_dnn_c30_boat_10_n03344393_3754.png
vgg,3,414,NaN,boat,boat,c30,2974_cop_dnn_c30_boat_10_n04612504_13783.png
vgg,3,415,NaN,boat,boat,c30,2975_cop_dnn_c30_boat_10_n02951358_129.png
vgg,3,416,NaN,boat,boat,c30,2976_cop_dnn_c30_boat_10_n03662601_34353.png
vgg,3,417,NaN,boat,boat,c30,2977_cop_dnn_c30_boat_10_n03344393_5371.png
vgg,3,418,NaN,boat,boat,c30,2978_cop_dnn_c30_boat_10_n04273569_33955.png
vgg,3,419,NaN,boat,boat,c30,2979_cop_dnn_c30_boat_10_n02951358_33580.png
vgg,3,420,NaN,boat,boat,c30,2980_cop_dnn_c30_boat_10_n03662601_1566.png
vgg,3,421,NaN,cat,cat,c30,2981_cop_dnn_c30_cat_10_n02124075_3333.png
vgg,3,422,NaN,cat,cat,c30,2982_cop_dnn_c30_cat_10_n02123394_7471.png
vgg,3,423,NaN,cat,cat,c30,2983_cop_dnn_c30_cat_10_n02125311_1721.png
vgg,3,424,NaN,cat,cat,c30,2984_cop_dnn_c30_cat_10_n02123597_4932.png
vgg,3,425,NaN,cat,cat,c30,2985_cop_dnn_c30_cat_10_n02123394_4151.png
vgg,3,426,NaN,cat,cat,c30,2986_cop_dnn_c30_cat_10_n02124075_8866.png
vgg,3,427,NaN,cat,cat,c30,2987_cop_dnn_c30_cat_10_n02125311_11098.png
vgg,3,428,NaN,cat,cat,c30,2988_cop_dnn_c30_cat_10_n02124075_13623.png
vgg,3,429,NaN,cat,cat,c30,2989_cop_dnn_c30_cat_10_n02123394_1980.png
vgg,3,430,NaN,cat,cat,c30,2990_cop_dnn_c30_cat_10_n02124075_11601.png
vgg,3,431,NaN,bottle,bottle,c30,2991_cop_dnn_c30_bottle_10_n03937543_2940.png
vgg,3,432,NaN,bottle,bottle,c30,2992_cop_dnn_c30_bottle_10_n04557648_9483.png
vgg,3,433,NaN,bottle,bottle,c30,2993_cop_dnn_c30_bottle_10_n02823428_7281.png
vgg,3,434,NaN,bottle,bottle,c30,2994_cop_dnn_c30_bottle_10_n03983396_10181.png
vgg,3,435,NaN,bottle,bottle,c30,2995_cop_dnn_c30_bottle_10_n03937543_4810.png
vgg,3,436,NaN,bottle,bottle,c30,2996_cop_dnn_c30_bottle_10_n04560804_9365.png
vgg,3,437,NaN,bottle,bottle,c30,2997_cop_dnn_c30_bottle_10_n03983396_4583.png
vgg,3,438,NaN,bottle,bottle,c30,2998_cop_dnn_c30_bottle_10_n04557648_5690.png
vgg,3,439,NaN,bottle,bottle,c30,2999_cop_dnn_c30_bottle_10_n02823428_13649.png
vgg,3,440,NaN,bottle,bottle,c30,3000_cop_dnn_c30_bottle_10_n04557648_7287.png
vgg,3,441,NaN,truck,truck,c30,3001_cop_dnn_c30_truck_10_n03796401_3695.png
vgg,3,442,NaN,truck,truck,c30,3002_cop_dnn_c30_truck_10_n03796401_4119.png
vgg,3,443,NaN,truck,truck,c30,3003_cop_dnn_c30_truck_10_n03417042_17911.png
vgg,3,444,NaN,truck,truck,c30,3004_cop_dnn_c30_truck_10_n04467665_68332.png
vgg,3,445,NaN,truck,truck,c30,3005_cop_dnn_c30_truck_10_n03417042_6893.png
vgg,3,446,NaN,truck,truck,c30,3006_cop_dnn_c30_truck_10_n03417042_1668.png
vgg,3,447,NaN,boat,truck,c30,3007_cop_dnn_c30_truck_10_n04467665_70122.png
vgg,3,448,NaN,truck,truck,c30,3008_cop_dnn_c30_truck_10_n03417042_2150.png
vgg,3,449,NaN,truck,truck,c30,3009_cop_dnn_c30_truck_10_n04467665_40002.png
vgg,3,450,NaN,truck,truck,c30,3010_cop_dnn_c30_truck_10_n03417042_13871.png
vgg,3,451,NaN,car,car,c30,3011_cop_dnn_c30_car_10_n04285008_5400.png
vgg,3,452,NaN,car,car,c30,3012_cop_dnn_c30_car_10_n03100240_9626.png
vgg,3,453,NaN,car,car,c30,3013_cop_dnn_c30_car_10_n03100240_5308.png
vgg,3,454,NaN,car,car,c30,3014_cop_dnn_c30_car_10_n03100240_8465.png
vgg,3,455,NaN,truck,car,c30,3015_cop_dnn_c30_car_10_n02814533_26369.png
vgg,3,456,NaN,car,car,c30,3016_cop_dnn_c30_car_10_n02814533_5085.png
vgg,3,457,NaN,car,car,c30,3017_cop_dnn_c30_car_10_n04285008_3759.png
vgg,3,458,NaN,truck,car,c30,3018_cop_dnn_c30_car_10_n03100240_15686.png
vgg,3,459,NaN,car,car,c30,3019_cop_dnn_c30_car_10_n04285008_5924.png
vgg,3,460,NaN,car,car,c30,3020_cop_dnn_c30_car_10_n03100240_11427.png
vgg,3,461,NaN,dog,bird,c30,3021_cop_dnn_c30_bird_10_n01531178_10828.png
vgg,3,462,NaN,bird,bird,c30,3022_cop_dnn_c30_bird_10_n02025239_7145.png
vgg,3,463,NaN,bird,bird,c30,3023_cop_dnn_c30_bird_10_n01797886_17135.png
vgg,3,464,NaN,bird,bird,c30,3024_cop_dnn_c30_bird_10_n01614925_3608.png
vgg,3,465,NaN,bird,bird,c30,3025_cop_dnn_c30_bird_10_n01514859_28584.png
vgg,3,466,NaN,bird,bird,c30,3026_cop_dnn_c30_bird_10_n02033041_16938.png
vgg,3,467,NaN,bird,bird,c30,3027_cop_dnn_c30_bird_10_n01622779_9257.png
vgg,3,468,NaN,bird,bird,c30,3028_cop_dnn_c30_bird_10_n01601694_20236.png
vgg,3,469,NaN,bird,bird,c30,3029_cop_dnn_c30_bird_10_n01855032_6055.png
vgg,3,470,NaN,bird,bird,c30,3030_cop_dnn_c30_bird_10_n02018795_9666.png
vgg,3,471,NaN,dog,dog,c30,3031_cop_dnn_c30_dog_10_n02089078_3914.png
vgg,3,472,NaN,dog,dog,c30,3032_cop_dnn_c30_dog_10_n02106550_9867.png
vgg,3,473,NaN,dog,dog,c30,3033_cop_dnn_c30_dog_10_n02111500_5296.png
vgg,3,474,NaN,dog,dog,c30,3034_cop_dnn_c30_dog_10_n02106030_14892.png
vgg,3,475,NaN,dog,dog,c30,3035_cop_dnn_c30_dog_10_n02086910_2647.png
vgg,3,476,NaN,dog,dog,c30,3036_cop_dnn_c30_dog_10_n02089867_8113.png
vgg,3,477,NaN,dog,dog,c30,3037_cop_dnn_c30_dog_10_n02097298_3641.png
vgg,3,478,NaN,dog,dog,c30,3038_cop_dnn_c30_dog_10_n02102973_6261.png
vgg,3,479,NaN,dog,dog,c30,3039_cop_dnn_c30_dog_10_n02100583_21104.png
vgg,3,480,NaN,dog,dog,c30,3040_cop_dnn_c30_dog_10_n02097047_4147.png
vgg,3,481,NaN,chair,knife,c15,3041_cop_dnn_c15_knife_10_n03041632_90407.png
vgg,3,482,NaN,knife,knife,c15,3042_cop_dnn_c15_knife_10_n03041632_5916.png
vgg,3,483,NaN,knife,knife,c15,3043_cop_dnn_c15_knife_10_n03041632_24060.png
vgg,3,484,NaN,knife,knife,c15,3044_cop_dnn_c15_knife_10_n03041632_20413.png
vgg,3,485,NaN,knife,knife,c15,3045_cop_dnn_c15_knife_10_n03041632_11887.png
vgg,3,486,NaN,dog,knife,c15,3046_cop_dnn_c15_knife_10_n03041632_84240.png
vgg,3,487,NaN,bottle,knife,c15,3047_cop_dnn_c15_knife_10_n03041632_52929.png
vgg,3,488,NaN,knife,knife,c15,3048_cop_dnn_c15_knife_10_n03041632_85488.png
vgg,3,489,NaN,knife,knife,c15,3049_cop_dnn_c15_knife_10_n03041632_7116.png
vgg,3,490,NaN,knife,knife,c15,3050_cop_dnn_c15_knife_10_n03041632_79317.png
vgg,3,491,NaN,keyboard,keyboard,c15,3051_cop_dnn_c15_keyboard_10_n03085013_15175.png
vgg,3,492,NaN,keyboard,keyboard,c15,3052_cop_dnn_c15_keyboard_10_n03085013_24275.png
vgg,3,493,NaN,keyboard,keyboard,c15,3053_cop_dnn_c15_keyboard_10_n04505470_3433.png
vgg,3,494,NaN,clock,keyboard,c15,3054_cop_dnn_c15_keyboard_10_n03085013_23119.png
vgg,3,495,NaN,cat,keyboard,c15,3055_cop_dnn_c15_keyboard_10_n03085013_15825.png
vgg,3,496,NaN,keyboard,keyboard,c15,3056_cop_dnn_c15_keyboard_10_n04505470_725.png
vgg,3,497,NaN,bottle,keyboard,c15,3057_cop_dnn_c15_keyboard_10_n04505470_147.png
vgg,3,498,NaN,clock,keyboard,c15,3058_cop_dnn_c15_keyboard_10_n03085013_19687.png
vgg,3,499,NaN,keyboard,keyboard,c15,3059_cop_dnn_c15_keyboard_10_n03085013_23173.png
vgg,3,500,NaN,keyboard,keyboard,c15,3060_cop_dnn_c15_keyboard_10_n03085013_20779.png
vgg,3,501,NaN,elephant,elephant,c15,3061_cop_dnn_c15_elephant_10_n02504458_4747.png
vgg,3,502,NaN,elephant,elephant,c15,3062_cop_dnn_c15_elephant_10_n02504013_19831.png
vgg,3,503,NaN,dog,elephant,c15,3063_cop_dnn_c15_elephant_10_n02504013_3083.png
vgg,3,504,NaN,dog,elephant,c15,3064_cop_dnn_c15_elephant_10_n02504013_3232.png
vgg,3,505,NaN,bear,elephant,c15,3065_cop_dnn_c15_elephant_10_n02504458_2056.png
vgg,3,506,NaN,elephant,elephant,c15,3066_cop_dnn_c15_elephant_10_n02504458_5619.png
vgg,3,507,NaN,elephant,elephant,c15,3067_cop_dnn_c15_elephant_10_n02504458_5290.png
vgg,3,508,NaN,elephant,elephant,c15,3068_cop_dnn_c15_elephant_10_n02504013_8378.png
vgg,3,509,NaN,bear,elephant,c15,3069_cop_dnn_c15_elephant_10_n02504458_12234.png
vgg,3,510,NaN,elephant,elephant,c15,3070_cop_dnn_c15_elephant_10_n02504458_3063.png
vgg,3,511,NaN,dog,bicycle,c15,3071_cop_dnn_c15_bicycle_10_n03792782_1728.png
vgg,3,512,NaN,bicycle,bicycle,c15,3072_cop_dnn_c15_bicycle_10_n03792782_4067.png
vgg,3,513,NaN,bicycle,bicycle,c15,3073_cop_dnn_c15_bicycle_10_n02835271_19907.png
vgg,3,514,NaN,bicycle,bicycle,c15,3074_cop_dnn_c15_bicycle_10_n02835271_5280.png
vgg,3,515,NaN,bicycle,bicycle,c15,3075_cop_dnn_c15_bicycle_10_n02835271_6481.png
vgg,3,516,NaN,bicycle,bicycle,c15,3076_cop_dnn_c15_bicycle_10_n02835271_9362.png
vgg,3,517,NaN,bicycle,bicycle,c15,3077_cop_dnn_c15_bicycle_10_n03792782_4090.png
vgg,3,518,NaN,bicycle,bicycle,c15,3078_cop_dnn_c15_bicycle_10_n03792782_19053.png
vgg,3,519,NaN,bicycle,bicycle,c15,3079_cop_dnn_c15_bicycle_10_n02835271_974.png
vgg,3,520,NaN,bicycle,bicycle,c15,3080_cop_dnn_c15_bicycle_10_n02835271_10813.png
vgg,3,521,NaN,airplane,airplane,c15,3081_cop_dnn_c15_airplane_10_n02690373_19646.png
vgg,3,522,NaN,airplane,airplane,c15,3082_cop_dnn_c15_airplane_10_n02690373_7276.png
vgg,3,523,NaN,airplane,airplane,c15,3083_cop_dnn_c15_airplane_10_n02690373_7651.png
vgg,3,524,NaN,airplane,airplane,c15,3084_cop_dnn_c15_airplane_10_n02690373_5465.png
vgg,3,525,NaN,airplane,airplane,c15,3085_cop_dnn_c15_airplane_10_n02690373_19152.png
vgg,3,526,NaN,airplane,airplane,c15,3086_cop_dnn_c15_airplane_10_n02690373_6655.png
vgg,3,527,NaN,airplane,airplane,c15,3087_cop_dnn_c15_airplane_10_n02690373_10481.png
vgg,3,528,NaN,airplane,airplane,c15,3088_cop_dnn_c15_airplane_10_n02690373_2584.png
vgg,3,529,NaN,airplane,airplane,c15,3089_cop_dnn_c15_airplane_10_n02690373_17722.png
vgg,3,530,NaN,airplane,airplane,c15,3090_cop_dnn_c15_airplane_10_n02690373_3859.png
vgg,3,531,NaN,clock,clock,c15,3091_cop_dnn_c15_clock_10_n04548280_3305.png
vgg,3,532,NaN,clock,clock,c15,3092_cop_dnn_c15_clock_10_n03196217_6289.png
vgg,3,533,NaN,clock,clock,c15,3093_cop_dnn_c15_clock_10_n02708093_7941.png
vgg,3,534,NaN,clock,clock,c15,3094_cop_dnn_c15_clock_10_n04548280_8942.png
vgg,3,535,NaN,clock,clock,c15,3095_cop_dnn_c15_clock_10_n02708093_5577.png
vgg,3,536,NaN,chair,clock,c15,3096_cop_dnn_c15_clock_10_n04548280_9340.png
vgg,3,537,NaN,clock,clock,c15,3097_cop_dnn_c15_clock_10_n04548280_8841.png
vgg,3,538,NaN,clock,clock,c15,3098_cop_dnn_c15_clock_10_n03196217_5365.png
vgg,3,539,NaN,clock,clock,c15,3099_cop_dnn_c15_clock_10_n04548280_3299.png
vgg,3,540,NaN,clock,clock,c15,3100_cop_dnn_c15_clock_10_n04548280_8348.png
vgg,3,541,NaN,bottle,oven,c15,3101_cop_dnn_c15_oven_10_n04111531_4562.png
vgg,3,542,NaN,clock,oven,c15,3102_cop_dnn_c15_oven_10_n04111531_15912.png
vgg,3,543,NaN,oven,oven,c15,3103_cop_dnn_c15_oven_10_n04111531_643.png
vgg,3,544,NaN,airplane,oven,c15,3104_cop_dnn_c15_oven_10_n04111531_9424.png
vgg,3,545,NaN,oven,oven,c15,3105_cop_dnn_c15_oven_10_n04111531_23046.png
vgg,3,546,NaN,dog,oven,c15,3106_cop_dnn_c15_oven_10_n04111531_8852.png
vgg,3,547,NaN,oven,oven,c15,3107_cop_dnn_c15_oven_10_n04111531_12769.png
vgg,3,548,NaN,bottle,oven,c15,3108_cop_dnn_c15_oven_10_n04111531_627.png
vgg,3,549,NaN,oven,oven,c15,3109_cop_dnn_c15_oven_10_n04111531_8009.png
vgg,3,550,NaN,bottle,oven,c15,3110_cop_dnn_c15_oven_10_n04111531_9314.png
vgg,3,551,NaN,chair,chair,c15,3111_cop_dnn_c15_chair_10_n03376595_15607.png
vgg,3,552,NaN,chair,chair,c15,3112_cop_dnn_c15_chair_10_n04099969_6691.png
vgg,3,553,NaN,chair,chair,c15,3113_cop_dnn_c15_chair_10_n03376595_11049.png
vgg,3,554,NaN,chair,chair,c15,3114_cop_dnn_c15_chair_10_n03376595_14143.png
vgg,3,555,NaN,chair,chair,c15,3115_cop_dnn_c15_chair_10_n02791124_186.png
vgg,3,556,NaN,chair,chair,c15,3116_cop_dnn_c15_chair_10_n02791124_1935.png
vgg,3,557,NaN,chair,chair,c15,3117_cop_dnn_c15_chair_10_n04099969_15060.png
vgg,3,558,NaN,chair,chair,c15,3118_cop_dnn_c15_chair_10_n02791124_7935.png
vgg,3,559,NaN,chair,chair,c15,3119_cop_dnn_c15_chair_10_n04099969_1823.png
vgg,3,560,NaN,chair,chair,c15,3120_cop_dnn_c15_chair_10_n03376595_381.png
vgg,3,561,NaN,bear,bear,c15,3121_cop_dnn_c15_bear_10_n02134084_16618.png
vgg,3,562,NaN,dog,bear,c15,3122_cop_dnn_c15_bear_10_n02133161_8236.png
vgg,3,563,NaN,bear,bear,c15,3123_cop_dnn_c15_bear_10_n02133161_6457.png
vgg,3,564,NaN,bear,bear,c15,3124_cop_dnn_c15_bear_10_n02134084_5822.png
vgg,3,565,NaN,bear,bear,c15,3125_cop_dnn_c15_bear_10_n02132136_6387.png
vgg,3,566,NaN,bear,bear,c15,3126_cop_dnn_c15_bear_10_n02134084_7371.png
vgg,3,567,NaN,dog,bear,c15,3127_cop_dnn_c15_bear_10_n02134418_132.png
vgg,3,568,NaN,bear,bear,c15,3128_cop_dnn_c15_bear_10_n02134418_1575.png
vgg,3,569,NaN,bear,bear,c15,3129_cop_dnn_c15_bear_10_n02134084_12180.png
vgg,3,570,NaN,bear,bear,c15,3130_cop_dnn_c15_bear_10_n02134084_659.png
vgg,3,571,NaN,boat,boat,c15,3131_cop_dnn_c15_boat_10_n03344393_2739.png
vgg,3,572,NaN,boat,boat,c15,3132_cop_dnn_c15_boat_10_n04612504_13184.png
vgg,3,573,NaN,boat,boat,c15,3133_cop_dnn_c15_boat_10_n02951358_12402.png
vgg,3,574,NaN,boat,boat,c15,3134_cop_dnn_c15_boat_10_n03662601_33880.png
vgg,3,575,NaN,airplane,boat,c15,3135_cop_dnn_c15_boat_10_n04273569_14265.png
vgg,3,576,NaN,truck,boat,c15,3136_cop_dnn_c15_boat_10_n03662601_10413.png
vgg,3,577,NaN,boat,boat,c15,3137_cop_dnn_c15_boat_10_n03662601_6865.png
vgg,3,578,NaN,boat,boat,c15,3138_cop_dnn_c15_boat_10_n04612504_239.png
vgg,3,579,NaN,boat,boat,c15,3139_cop_dnn_c15_boat_10_n04612504_4744.png
vgg,3,580,NaN,boat,boat,c15,3140_cop_dnn_c15_boat_10_n03344393_13952.png
vgg,3,581,NaN,bear,cat,c15,3141_cop_dnn_c15_cat_10_n02123159_1570.png
vgg,3,582,NaN,dog,cat,c15,3142_cop_dnn_c15_cat_10_n02123159_7612.png
vgg,3,583,NaN,cat,cat,c15,3143_cop_dnn_c15_cat_10_n02123394_6031.png
vgg,3,584,NaN,cat,cat,c15,3144_cop_dnn_c15_cat_10_n02123159_7554.png
vgg,3,585,NaN,cat,cat,c15,3145_cop_dnn_c15_cat_10_n02125311_47452.png
vgg,3,586,NaN,dog,cat,c15,3146_cop_dnn_c15_cat_10_n02123045_5713.png
vgg,3,587,NaN,cat,cat,c15,3147_cop_dnn_c15_cat_10_n02123597_12157.png
vgg,3,588,NaN,cat,cat,c15,3148_cop_dnn_c15_cat_10_n02124075_2843.png
vgg,3,589,NaN,cat,cat,c15,3149_cop_dnn_c15_cat_10_n02125311_27989.png
vgg,3,590,NaN,bear,cat,c15,3150_cop_dnn_c15_cat_10_n02125311_9449.png
vgg,3,591,NaN,bottle,bottle,c15,3151_cop_dnn_c15_bottle_10_n03983396_7310.png
vgg,3,592,NaN,bottle,bottle,c15,3152_cop_dnn_c15_bottle_10_n04560804_7358.png
vgg,3,593,NaN,bottle,bottle,c15,3153_cop_dnn_c15_bottle_10_n03983396_2154.png
vgg,3,594,NaN,bottle,bottle,c15,3154_cop_dnn_c15_bottle_10_n04557648_2512.png
vgg,3,595,NaN,bottle,bottle,c15,3155_cop_dnn_c15_bottle_10_n04560804_3438.png
vgg,3,596,NaN,bottle,bottle,c15,3156_cop_dnn_c15_bottle_10_n04557648_4517.png
vgg,3,597,NaN,bottle,bottle,c15,3157_cop_dnn_c15_bottle_10_n04557648_2200.png
vgg,3,598,NaN,bottle,bottle,c15,3158_cop_dnn_c15_bottle_10_n04557648_844.png
vgg,3,599,NaN,bottle,bottle,c15,3159_cop_dnn_c15_bottle_10_n02823428_7495.png
vgg,3,600,NaN,bottle,bottle,c15,3160_cop_dnn_c15_bottle_10_n02823428_7679.png
vgg,3,601,NaN,truck,truck,c15,3161_cop_dnn_c15_truck_10_n03417042_5514.png
vgg,3,602,NaN,truck,truck,c15,3162_cop_dnn_c15_truck_10_n03796401_21829.png
vgg,3,603,NaN,truck,truck,c15,3163_cop_dnn_c15_truck_10_n03417042_4694.png
vgg,3,604,NaN,truck,truck,c15,3164_cop_dnn_c15_truck_10_n04467665_66876.png
vgg,3,605,NaN,truck,truck,c15,3165_cop_dnn_c15_truck_10_n03417042_130.png
vgg,3,606,NaN,truck,truck,c15,3166_cop_dnn_c15_truck_10_n03796401_666.png
vgg,3,607,NaN,truck,truck,c15,3167_cop_dnn_c15_truck_10_n03796401_27.png
vgg,3,608,NaN,truck,truck,c15,3168_cop_dnn_c15_truck_10_n04467665_19574.png
vgg,3,609,NaN,truck,truck,c15,3169_cop_dnn_c15_truck_10_n03796401_13280.png
vgg,3,610,NaN,truck,truck,c15,3170_cop_dnn_c15_truck_10_n03417042_17142.png
vgg,3,611,NaN,car,car,c15,3171_cop_dnn_c15_car_10_n02814533_80.png
vgg,3,612,NaN,truck,car,c15,3172_cop_dnn_c15_car_10_n04285008_10917.png
vgg,3,613,NaN,truck,car,c15,3173_cop_dnn_c15_car_10_n02814533_3811.png
vgg,3,614,NaN,car,car,c15,3174_cop_dnn_c15_car_10_n02814533_5147.png
vgg,3,615,NaN,car,car,c15,3175_cop_dnn_c15_car_10_n04285008_8612.png
vgg,3,616,NaN,car,car,c15,3176_cop_dnn_c15_car_10_n03100240_9640.png
vgg,3,617,NaN,truck,car,c15,3177_cop_dnn_c15_car_10_n02814533_13278.png
vgg,3,618,NaN,truck,car,c15,3178_cop_dnn_c15_car_10_n03100240_14045.png
vgg,3,619,NaN,car,car,c15,3179_cop_dnn_c15_car_10_n04285008_10758.png
vgg,3,620,NaN,truck,car,c15,3180_cop_dnn_c15_car_10_n04285008_1667.png
vgg,3,621,NaN,bird,bird,c15,3181_cop_dnn_c15_bird_10_n02009229_3028.png
vgg,3,622,NaN,bird,bird,c15,3182_cop_dnn_c15_bird_10_n01828970_652.png
vgg,3,623,NaN,bird,bird,c15,3183_cop_dnn_c15_bird_10_n02051845_17261.png
vgg,3,624,NaN,bird,bird,c15,3184_cop_dnn_c15_bird_10_n02009912_27440.png
vgg,3,625,NaN,bird,bird,c15,3185_cop_dnn_c15_bird_10_n01855672_7030.png
vgg,3,626,NaN,bird,bird,c15,3186_cop_dnn_c15_bird_10_n01828970_16751.png
vgg,3,627,NaN,bird,bird,c15,3187_cop_dnn_c15_bird_10_n01537544_3703.png
vgg,3,628,NaN,bird,bird,c15,3188_cop_dnn_c15_bird_10_n02006656_879.png
vgg,3,629,NaN,bird,bird,c15,3189_cop_dnn_c15_bird_10_n02037110_3539.png
vgg,3,630,NaN,bird,bird,c15,3190_cop_dnn_c15_bird_10_n01795545_14281.png
vgg,3,631,NaN,dog,dog,c15,3191_cop_dnn_c15_dog_10_n02100735_6217.png
vgg,3,632,NaN,dog,dog,c15,3192_cop_dnn_c15_dog_10_n02107142_33582.png
vgg,3,633,NaN,dog,dog,c15,3193_cop_dnn_c15_dog_10_n02094258_1757.png
vgg,3,634,NaN,dog,dog,c15,3194_cop_dnn_c15_dog_10_n02096437_5125.png
vgg,3,635,NaN,dog,dog,c15,3195_cop_dnn_c15_dog_10_n02094114_2495.png
vgg,3,636,NaN,dog,dog,c15,3196_cop_dnn_c15_dog_10_n02111500_7308.png
vgg,3,637,NaN,dog,dog,c15,3197_cop_dnn_c15_dog_10_n02102318_7057.png
vgg,3,638,NaN,dog,dog,c15,3198_cop_dnn_c15_dog_10_n02097298_5136.png
vgg,3,639,NaN,dog,dog,c15,3199_cop_dnn_c15_dog_10_n02096585_1348.png
vgg,3,640,NaN,dog,dog,c15,3200_cop_dnn_c15_dog_10_n02096051_2148.png
vgg,3,641,NaN,knife,knife,c10,3201_cop_dnn_c10_knife_10_n03041632_26989.png
vgg,3,642,NaN,knife,knife,c10,3202_cop_dnn_c10_knife_10_n03041632_21034.png
vgg,3,643,NaN,knife,knife,c10,3203_cop_dnn_c10_knife_10_n03041632_32350.png
vgg,3,644,NaN,knife,knife,c10,3204_cop_dnn_c10_knife_10_n03041632_42196.png
vgg,3,645,NaN,knife,knife,c10,3205_cop_dnn_c10_knife_10_n03041632_7205.png
vgg,3,646,NaN,knife,knife,c10,3206_cop_dnn_c10_knife_10_n03041632_24326.png
vgg,3,647,NaN,knife,knife,c10,3207_cop_dnn_c10_knife_10_n03041632_16206.png
vgg,3,648,NaN,clock,knife,c10,3208_cop_dnn_c10_knife_10_n03041632_27134.png
vgg,3,649,NaN,chair,knife,c10,3209_cop_dnn_c10_knife_10_n03041632_5427.png
vgg,3,650,NaN,keyboard,knife,c10,3210_cop_dnn_c10_knife_10_n03041632_101810.png
vgg,3,651,NaN,keyboard,keyboard,c10,3211_cop_dnn_c10_keyboard_10_n03085013_24105.png
vgg,3,652,NaN,keyboard,keyboard,c10,3212_cop_dnn_c10_keyboard_10_n04505470_2056.png
vgg,3,653,NaN,keyboard,keyboard,c10,3213_cop_dnn_c10_keyboard_10_n04505470_6800.png
vgg,3,654,NaN,keyboard,keyboard,c10,3214_cop_dnn_c10_keyboard_10_n03085013_10366.png
vgg,3,655,NaN,bottle,keyboard,c10,3215_cop_dnn_c10_keyboard_10_n04505470_3825.png
vgg,3,656,NaN,keyboard,keyboard,c10,3216_cop_dnn_c10_keyboard_10_n04505470_850.png
vgg,3,657,NaN,dog,keyboard,c10,3217_cop_dnn_c10_keyboard_10_n03085013_21004.png
vgg,3,658,NaN,keyboard,keyboard,c10,3218_cop_dnn_c10_keyboard_10_n03085013_20584.png
vgg,3,659,NaN,airplane,keyboard,c10,3219_cop_dnn_c10_keyboard_10_n04505470_5006.png
vgg,3,660,NaN,keyboard,keyboard,c10,3220_cop_dnn_c10_keyboard_10_n03085013_10367.png
vgg,3,661,NaN,dog,elephant,c10,3221_cop_dnn_c10_elephant_10_n02504458_7866.png
vgg,3,662,NaN,bear,elephant,c10,3222_cop_dnn_c10_elephant_10_n02504458_13358.png
vgg,3,663,NaN,elephant,elephant,c10,3223_cop_dnn_c10_elephant_10_n02504013_7210.png
vgg,3,664,NaN,elephant,elephant,c10,3224_cop_dnn_c10_elephant_10_n02504013_2342.png
vgg,3,665,NaN,bear,elephant,c10,3225_cop_dnn_c10_elephant_10_n02504013_26899.png
vgg,3,666,NaN,elephant,elephant,c10,3226_cop_dnn_c10_elephant_10_n02504458_242.png
vgg,3,667,NaN,elephant,elephant,c10,3227_cop_dnn_c10_elephant_10_n02504458_743.png
vgg,3,668,NaN,elephant,elephant,c10,3228_cop_dnn_c10_elephant_10_n02504013_10346.png
vgg,3,669,NaN,elephant,elephant,c10,3229_cop_dnn_c10_elephant_10_n02504013_2212.png
vgg,3,670,NaN,elephant,elephant,c10,3230_cop_dnn_c10_elephant_10_n02504013_7001.png
vgg,3,671,NaN,bicycle,bicycle,c10,3231_cop_dnn_c10_bicycle_10_n02835271_7296.png
vgg,3,672,NaN,bicycle,bicycle,c10,3232_cop_dnn_c10_bicycle_10_n03792782_4222.png
vgg,3,673,NaN,bear,bicycle,c10,3233_cop_dnn_c10_bicycle_10_n02835271_9860.png
vgg,3,674,NaN,bicycle,bicycle,c10,3234_cop_dnn_c10_bicycle_10_n03792782_19739.png
vgg,3,675,NaN,bicycle,bicycle,c10,3235_cop_dnn_c10_bicycle_10_n02835271_22549.png
vgg,3,676,NaN,chair,bicycle,c10,3236_cop_dnn_c10_bicycle_10_n02835271_8322.png
vgg,3,677,NaN,truck,bicycle,c10,3237_cop_dnn_c10_bicycle_10_n03792782_3187.png
vgg,3,678,NaN,bicycle,bicycle,c10,3238_cop_dnn_c10_bicycle_10_n03792782_50972.png
vgg,3,679,NaN,bicycle,bicycle,c10,3239_cop_dnn_c10_bicycle_10_n02835271_12930.png
vgg,3,680,NaN,truck,bicycle,c10,3240_cop_dnn_c10_bicycle_10_n03792782_7182.png
vgg,3,681,NaN,airplane,airplane,c10,3241_cop_dnn_c10_airplane_10_n02690373_17731.png
vgg,3,682,NaN,airplane,airplane,c10,3242_cop_dnn_c10_airplane_10_n02690373_9181.png
vgg,3,683,NaN,airplane,airplane,c10,3243_cop_dnn_c10_airplane_10_n02690373_4793.png
vgg,3,684,NaN,airplane,airplane,c10,3244_cop_dnn_c10_airplane_10_n02690373_5624.png
vgg,3,685,NaN,airplane,airplane,c10,3245_cop_dnn_c10_airplane_10_n02690373_3640.png
vgg,3,686,NaN,airplane,airplane,c10,3246_cop_dnn_c10_airplane_10_n02690373_6328.png
vgg,3,687,NaN,airplane,airplane,c10,3247_cop_dnn_c10_airplane_10_n02690373_807.png
vgg,3,688,NaN,airplane,airplane,c10,3248_cop_dnn_c10_airplane_10_n02690373_5632.png
vgg,3,689,NaN,airplane,airplane,c10,3249_cop_dnn_c10_airplane_10_n02690373_2128.png
vgg,3,690,NaN,airplane,airplane,c10,3250_cop_dnn_c10_airplane_10_n02690373_12976.png
vgg,3,691,NaN,clock,clock,c10,3251_cop_dnn_c10_clock_10_n04548280_4346.png
vgg,3,692,NaN,clock,clock,c10,3252_cop_dnn_c10_clock_10_n03196217_2009.png
vgg,3,693,NaN,clock,clock,c10,3253_cop_dnn_c10_clock_10_n02708093_1295.png
vgg,3,694,NaN,bottle,clock,c10,3254_cop_dnn_c10_clock_10_n03196217_5991.png
vgg,3,695,NaN,clock,clock,c10,3255_cop_dnn_c10_clock_10_n03196217_7141.png
vgg,3,696,NaN,clock,clock,c10,3256_cop_dnn_c10_clock_10_n04548280_4248.png
vgg,3,697,NaN,clock,clock,c10,3257_cop_dnn_c10_clock_10_n03196217_368.png
vgg,3,698,NaN,clock,clock,c10,3258_cop_dnn_c10_clock_10_n04548280_6550.png
vgg,3,699,NaN,clock,clock,c10,3259_cop_dnn_c10_clock_10_n02708093_1245.png
vgg,3,700,NaN,clock,clock,c10,3260_cop_dnn_c10_clock_10_n03196217_6984.png
vgg,3,701,NaN,truck,oven,c10,3261_cop_dnn_c10_oven_10_n04111531_13277.png
vgg,3,702,NaN,truck,oven,c10,3262_cop_dnn_c10_oven_10_n04111531_10420.png
vgg,3,703,NaN,bottle,oven,c10,3263_cop_dnn_c10_oven_10_n04111531_11993.png
vgg,3,704,NaN,oven,oven,c10,3264_cop_dnn_c10_oven_10_n04111531_8553.png
vgg,3,705,NaN,dog,oven,c10,3265_cop_dnn_c10_oven_10_n04111531_686.png
vgg,3,706,NaN,oven,oven,c10,3266_cop_dnn_c10_oven_10_n04111531_2662.png
vgg,3,707,NaN,dog,oven,c10,3267_cop_dnn_c10_oven_10_n04111531_313.png
vgg,3,708,NaN,oven,oven,c10,3268_cop_dnn_c10_oven_10_n04111531_7252.png
vgg,3,709,NaN,bottle,oven,c10,3269_cop_dnn_c10_oven_10_n04111531_3265.png
vgg,3,710,NaN,boat,oven,c10,3270_cop_dnn_c10_oven_10_n04111531_1855.png
vgg,3,711,NaN,chair,chair,c10,3271_cop_dnn_c10_chair_10_n04099969_15676.png
vgg,3,712,NaN,chair,chair,c10,3272_cop_dnn_c10_chair_10_n04429376_43275.png
vgg,3,713,NaN,chair,chair,c10,3273_cop_dnn_c10_chair_10_n04099969_3711.png
vgg,3,714,NaN,chair,chair,c10,3274_cop_dnn_c10_chair_10_n04099969_2267.png
vgg,3,715,NaN,chair,chair,c10,3275_cop_dnn_c10_chair_10_n03376595_2351.png
vgg,3,716,NaN,chair,chair,c10,3276_cop_dnn_c10_chair_10_n03376595_4217.png
vgg,3,717,NaN,chair,chair,c10,3277_cop_dnn_c10_chair_10_n02791124_665.png
vgg,3,718,NaN,chair,chair,c10,3278_cop_dnn_c10_chair_10_n04099969_1976.png
vgg,3,719,NaN,chair,chair,c10,3279_cop_dnn_c10_chair_10_n02791124_5995.png
vgg,3,720,NaN,chair,chair,c10,3280_cop_dnn_c10_chair_10_n04099969_582.png
vgg,3,721,NaN,dog,bear,c10,3281_cop_dnn_c10_bear_10_n02133161_11638.png
vgg,3,722,NaN,dog,bear,c10,3282_cop_dnn_c10_bear_10_n02133161_11551.png
vgg,3,723,NaN,bear,bear,c10,3283_cop_dnn_c10_bear_10_n02134084_1410.png
vgg,3,724,NaN,dog,bear,c10,3284_cop_dnn_c10_bear_10_n02133161_12243.png
vgg,3,725,NaN,bird,bear,c10,3285_cop_dnn_c10_bear_10_n02133161_8614.png
vgg,3,726,NaN,bear,bear,c10,3286_cop_dnn_c10_bear_10_n02134418_2279.png
vgg,3,727,NaN,bear,bear,c10,3287_cop_dnn_c10_bear_10_n02134084_54.png
vgg,3,728,NaN,bear,bear,c10,3288_cop_dnn_c10_bear_10_n02134084_14992.png
vgg,3,729,NaN,bear,bear,c10,3289_cop_dnn_c10_bear_10_n02134084_1528.png
vgg,3,730,NaN,dog,bear,c10,3290_cop_dnn_c10_bear_10_n02132136_11050.png
vgg,3,731,NaN,boat,boat,c10,3291_cop_dnn_c10_boat_10_n03662601_16925.png
vgg,3,732,NaN,boat,boat,c10,3292_cop_dnn_c10_boat_10_n04273569_18945.png
vgg,3,733,NaN,boat,boat,c10,3293_cop_dnn_c10_boat_10_n04612504_31680.png
vgg,3,734,NaN,boat,boat,c10,3294_cop_dnn_c10_boat_10_n03344393_251.png
vgg,3,735,NaN,boat,boat,c10,3295_cop_dnn_c10_boat_10_n02951358_30908.png
vgg,3,736,NaN,boat,boat,c10,3296_cop_dnn_c10_boat_10_n03662601_4665.png
vgg,3,737,NaN,boat,boat,c10,3297_cop_dnn_c10_boat_10_n02951358_33817.png
vgg,3,738,NaN,boat,boat,c10,3298_cop_dnn_c10_boat_10_n03662601_9102.png
vgg,3,739,NaN,boat,boat,c10,3299_cop_dnn_c10_boat_10_n04273569_23838.png
vgg,3,740,NaN,boat,boat,c10,3300_cop_dnn_c10_boat_10_n03344393_482.png
vgg,3,741,NaN,cat,cat,c10,3301_cop_dnn_c10_cat_10_n02123394_2405.png
vgg,3,742,NaN,cat,cat,c10,3302_cop_dnn_c10_cat_10_n02123394_2854.png
vgg,3,743,NaN,dog,cat,c10,3303_cop_dnn_c10_cat_10_n02124075_7872.png
vgg,3,744,NaN,dog,cat,c10,3304_cop_dnn_c10_cat_10_n02123159_7934.png
vgg,3,745,NaN,truck,cat,c10,3305_cop_dnn_c10_cat_10_n02123597_13627.png
vgg,3,746,NaN,cat,cat,c10,3306_cop_dnn_c10_cat_10_n02123597_2413.png
vgg,3,747,NaN,cat,cat,c10,3307_cop_dnn_c10_cat_10_n02125311_55770.png
vgg,3,748,NaN,cat,cat,c10,3308_cop_dnn_c10_cat_10_n02123394_7739.png
vgg,3,749,NaN,bear,cat,c10,3309_cop_dnn_c10_cat_10_n02125311_15594.png
vgg,3,750,NaN,cat,cat,c10,3310_cop_dnn_c10_cat_10_n02123045_2071.png
vgg,3,751,NaN,clock,bottle,c10,3311_cop_dnn_c10_bottle_10_n04560804_15332.png
vgg,3,752,NaN,bottle,bottle,c10,3312_cop_dnn_c10_bottle_10_n03983396_10476.png
vgg,3,753,NaN,bottle,bottle,c10,3313_cop_dnn_c10_bottle_10_n02823428_10584.png
vgg,3,754,NaN,bottle,bottle,c10,3314_cop_dnn_c10_bottle_10_n03937543_2140.png
vgg,3,755,NaN,bottle,bottle,c10,3315_cop_dnn_c10_bottle_10_n04557648_11070.png
vgg,3,756,NaN,bottle,bottle,c10,3316_cop_dnn_c10_bottle_10_n03983396_5911.png
vgg,3,757,NaN,bottle,bottle,c10,3317_cop_dnn_c10_bottle_10_n04560804_4138.png
vgg,3,758,NaN,bottle,bottle,c10,3318_cop_dnn_c10_bottle_10_n03983396_397.png
vgg,3,759,NaN,bottle,bottle,c10,3319_cop_dnn_c10_bottle_10_n03983396_4701.png
vgg,3,760,NaN,bottle,bottle,c10,3320_cop_dnn_c10_bottle_10_n04560804_14491.png
vgg,3,761,NaN,truck,truck,c10,3321_cop_dnn_c10_truck_10_n03796401_172.png
vgg,3,762,NaN,truck,truck,c10,3322_cop_dnn_c10_truck_10_n03796401_19058.png
vgg,3,763,NaN,boat,truck,c10,3323_cop_dnn_c10_truck_10_n04467665_779.png
vgg,3,764,NaN,truck,truck,c10,3324_cop_dnn_c10_truck_10_n04467665_9123.png
vgg,3,765,NaN,truck,truck,c10,3325_cop_dnn_c10_truck_10_n04467665_16069.png
vgg,3,766,NaN,truck,truck,c10,3326_cop_dnn_c10_truck_10_n03417042_4900.png
vgg,3,767,NaN,truck,truck,c10,3327_cop_dnn_c10_truck_10_n03417042_11883.png
vgg,3,768,NaN,truck,truck,c10,3328_cop_dnn_c10_truck_10_n04467665_1947.png
vgg,3,769,NaN,truck,truck,c10,3329_cop_dnn_c10_truck_10_n03417042_5346.png
vgg,3,770,NaN,boat,truck,c10,3330_cop_dnn_c10_truck_10_n04467665_7464.png
vgg,3,771,NaN,truck,car,c10,3331_cop_dnn_c10_car_10_n03100240_1879.png
vgg,3,772,NaN,boat,car,c10,3332_cop_dnn_c10_car_10_n03100240_14948.png
vgg,3,773,NaN,car,car,c10,3333_cop_dnn_c10_car_10_n04285008_13211.png
vgg,3,774,NaN,car,car,c10,3334_cop_dnn_c10_car_10_n03100240_15375.png
vgg,3,775,NaN,car,car,c10,3335_cop_dnn_c10_car_10_n03100240_17754.png
vgg,3,776,NaN,truck,car,c10,3336_cop_dnn_c10_car_10_n03100240_4354.png
vgg,3,777,NaN,truck,car,c10,3337_cop_dnn_c10_car_10_n03100240_7219.png
vgg,3,778,NaN,car,car,c10,3338_cop_dnn_c10_car_10_n04285008_8584.png
vgg,3,779,NaN,car,car,c10,3339_cop_dnn_c10_car_10_n03100240_5776.png
vgg,3,780,NaN,car,car,c10,3340_cop_dnn_c10_car_10_n02814533_25986.png
vgg,3,781,NaN,bird,bird,c10,3341_cop_dnn_c10_bird_10_n02017213_2122.png
vgg,3,782,NaN,bird,bird,c10,3342_cop_dnn_c10_bird_10_n01829413_8757.png
vgg,3,783,NaN,bird,bird,c10,3343_cop_dnn_c10_bird_10_n02017213_11387.png
vgg,3,784,NaN,bird,bird,c10,3344_cop_dnn_c10_bird_10_n02028035_5363.png
vgg,3,785,NaN,dog,bird,c10,3345_cop_dnn_c10_bird_10_n02002724_3217.png
vgg,3,786,NaN,bird,bird,c10,3346_cop_dnn_c10_bird_10_n02027492_1229.png
vgg,3,787,NaN,bird,bird,c10,3347_cop_dnn_c10_bird_10_n01818515_7585.png
vgg,3,788,NaN,bird,bird,c10,3348_cop_dnn_c10_bird_10_n01843065_4433.png
vgg,3,789,NaN,bird,bird,c10,3349_cop_dnn_c10_bird_10_n02018207_1317.png
vgg,3,790,NaN,bird,bird,c10,3350_cop_dnn_c10_bird_10_n02027492_5758.png
vgg,3,791,NaN,dog,dog,c10,3351_cop_dnn_c10_dog_10_n02112706_5519.png
vgg,3,792,NaN,dog,dog,c10,3352_cop_dnn_c10_dog_10_n02100877_8900.png
vgg,3,793,NaN,dog,dog,c10,3353_cop_dnn_c10_dog_10_n02105641_643.png
vgg,3,794,NaN,dog,dog,c10,3354_cop_dnn_c10_dog_10_n02113023_11276.png
vgg,3,795,NaN,dog,dog,c10,3355_cop_dnn_c10_dog_10_n02093754_3888.png
vgg,3,796,NaN,dog,dog,c10,3356_cop_dnn_c10_dog_10_n02092002_929.png
vgg,3,797,NaN,dog,dog,c10,3357_cop_dnn_c10_dog_10_n02112706_5262.png
vgg,3,798,NaN,dog,dog,c10,3358_cop_dnn_c10_dog_10_n02096585_11164.png
vgg,3,799,NaN,boat,dog,c10,3359_cop_dnn_c10_dog_10_n02092339_7422.png
vgg,3,800,NaN,dog,dog,c10,3360_cop_dnn_c10_dog_10_n02096294_430.png
vgg,3,801,NaN,knife,knife,c05,3361_cop_dnn_c05_knife_10_n03041632_23803.png
vgg,3,802,NaN,boat,knife,c05,3362_cop_dnn_c05_knife_10_n03041632_30457.png
vgg,3,803,NaN,bottle,knife,c05,3363_cop_dnn_c05_knife_10_n03041632_18468.png
vgg,3,804,NaN,boat,knife,c05,3364_cop_dnn_c05_knife_10_n03041632_26710.png
vgg,3,805,NaN,knife,knife,c05,3365_cop_dnn_c05_knife_10_n03041632_24817.png
vgg,3,806,NaN,knife,knife,c05,3366_cop_dnn_c05_knife_10_n03041632_32054.png
vgg,3,807,NaN,bear,knife,c05,3367_cop_dnn_c05_knife_10_n03041632_4044.png
vgg,3,808,NaN,bottle,knife,c05,3368_cop_dnn_c05_knife_10_n03041632_86118.png
vgg,3,809,NaN,bear,knife,c05,3369_cop_dnn_c05_knife_10_n03041632_7119.png
vgg,3,810,NaN,bottle,knife,c05,3370_cop_dnn_c05_knife_10_n03041632_32177.png
vgg,3,811,NaN,keyboard,keyboard,c05,3371_cop_dnn_c05_keyboard_10_n03085013_29576.png
vgg,3,812,NaN,boat,keyboard,c05,3372_cop_dnn_c05_keyboard_10_n04505470_4422.png
vgg,3,813,NaN,keyboard,keyboard,c05,3373_cop_dnn_c05_keyboard_10_n03085013_24228.png
vgg,3,814,NaN,keyboard,keyboard,c05,3374_cop_dnn_c05_keyboard_10_n03085013_20523.png
vgg,3,815,NaN,keyboard,keyboard,c05,3375_cop_dnn_c05_keyboard_10_n04505470_1412.png
vgg,3,816,NaN,boat,keyboard,c05,3376_cop_dnn_c05_keyboard_10_n03085013_22669.png
vgg,3,817,NaN,keyboard,keyboard,c05,3377_cop_dnn_c05_keyboard_10_n03085013_19581.png
vgg,3,818,NaN,chair,keyboard,c05,3378_cop_dnn_c05_keyboard_10_n03085013_22704.png
vgg,3,819,NaN,keyboard,keyboard,c05,3379_cop_dnn_c05_keyboard_10_n03085013_2064.png
vgg,3,820,NaN,knife,keyboard,c05,3380_cop_dnn_c05_keyboard_10_n03085013_24088.png
vgg,3,821,NaN,elephant,elephant,c05,3381_cop_dnn_c05_elephant_10_n02504013_16197.png
vgg,3,822,NaN,boat,elephant,c05,3382_cop_dnn_c05_elephant_10_n02504013_1769.png
vgg,3,823,NaN,dog,elephant,c05,3383_cop_dnn_c05_elephant_10_n02504458_359.png
vgg,3,824,NaN,boat,elephant,c05,3384_cop_dnn_c05_elephant_10_n02504458_1473.png
vgg,3,825,NaN,boat,elephant,c05,3385_cop_dnn_c05_elephant_10_n02504013_2498.png
vgg,3,826,NaN,dog,elephant,c05,3386_cop_dnn_c05_elephant_10_n02504013_5221.png
vgg,3,827,NaN,boat,elephant,c05,3387_cop_dnn_c05_elephant_10_n02504458_2100.png
vgg,3,828,NaN,bear,elephant,c05,3388_cop_dnn_c05_elephant_10_n02504013_8572.png
vgg,3,829,NaN,bear,elephant,c05,3389_cop_dnn_c05_elephant_10_n02504013_4531.png
vgg,3,830,NaN,bear,elephant,c05,3390_cop_dnn_c05_elephant_10_n02504458_6449.png
vgg,3,831,NaN,bicycle,bicycle,c05,3391_cop_dnn_c05_bicycle_10_n03792782_48920.png
vgg,3,832,NaN,truck,bicycle,c05,3392_cop_dnn_c05_bicycle_10_n02835271_11915.png
vgg,3,833,NaN,clock,bicycle,c05,3393_cop_dnn_c05_bicycle_10_n02835271_13395.png
vgg,3,834,NaN,boat,bicycle,c05,3394_cop_dnn_c05_bicycle_10_n03792782_19083.png
vgg,3,835,NaN,chair,bicycle,c05,3395_cop_dnn_c05_bicycle_10_n02835271_8273.png
vgg,3,836,NaN,bottle,bicycle,c05,3396_cop_dnn_c05_bicycle_10_n02835271_276.png
vgg,3,837,NaN,bicycle,bicycle,c05,3397_cop_dnn_c05_bicycle_10_n02835271_7148.png
vgg,3,838,NaN,clock,bicycle,c05,3398_cop_dnn_c05_bicycle_10_n03792782_4708.png
vgg,3,839,NaN,truck,bicycle,c05,3399_cop_dnn_c05_bicycle_10_n02835271_7828.png
vgg,3,840,NaN,boat,bicycle,c05,3400_cop_dnn_c05_bicycle_10_n02835271_3874.png
vgg,3,841,NaN,airplane,airplane,c05,3401_cop_dnn_c05_airplane_10_n02690373_16620.png
vgg,3,842,NaN,airplane,airplane,c05,3402_cop_dnn_c05_airplane_10_n02690373_10817.png
vgg,3,843,NaN,airplane,airplane,c05,3403_cop_dnn_c05_airplane_10_n02690373_1972.png
vgg,3,844,NaN,airplane,airplane,c05,3404_cop_dnn_c05_airplane_10_n02690373_6942.png
vgg,3,845,NaN,airplane,airplane,c05,3405_cop_dnn_c05_airplane_10_n02690373_5866.png
vgg,3,846,NaN,boat,airplane,c05,3406_cop_dnn_c05_airplane_10_n02690373_4105.png
vgg,3,847,NaN,bottle,airplane,c05,3407_cop_dnn_c05_airplane_10_n02690373_13021.png
vgg,3,848,NaN,airplane,airplane,c05,3408_cop_dnn_c05_airplane_10_n02690373_13078.png
vgg,3,849,NaN,boat,airplane,c05,3409_cop_dnn_c05_airplane_10_n02690373_9432.png
vgg,3,850,NaN,bird,airplane,c05,3410_cop_dnn_c05_airplane_10_n02690373_4269.png
vgg,3,851,NaN,clock,clock,c05,3411_cop_dnn_c05_clock_10_n04548280_2942.png
vgg,3,852,NaN,clock,clock,c05,3412_cop_dnn_c05_clock_10_n04548280_5072.png
vgg,3,853,NaN,clock,clock,c05,3413_cop_dnn_c05_clock_10_n04548280_1146.png
vgg,3,854,NaN,clock,clock,c05,3414_cop_dnn_c05_clock_10_n04548280_1190.png
vgg,3,855,NaN,clock,clock,c05,3415_cop_dnn_c05_clock_10_n03196217_7274.png
vgg,3,856,NaN,clock,clock,c05,3416_cop_dnn_c05_clock_10_n04548280_1323.png
vgg,3,857,NaN,clock,clock,c05,3417_cop_dnn_c05_clock_10_n04548280_3386.png
vgg,3,858,NaN,clock,clock,c05,3418_cop_dnn_c05_clock_10_n03196217_6178.png
vgg,3,859,NaN,clock,clock,c05,3419_cop_dnn_c05_clock_10_n02708093_425.png
vgg,3,860,NaN,clock,clock,c05,3420_cop_dnn_c05_clock_10_n02708093_2546.png
vgg,3,861,NaN,clock,oven,c05,3421_cop_dnn_c05_oven_10_n04111531_18645.png
vgg,3,862,NaN,chair,oven,c05,3422_cop_dnn_c05_oven_10_n04111531_7345.png
vgg,3,863,NaN,boat,oven,c05,3423_cop_dnn_c05_oven_10_n04111531_19126.png
vgg,3,864,NaN,bear,oven,c05,3424_cop_dnn_c05_oven_10_n04111531_4665.png
vgg,3,865,NaN,bottle,oven,c05,3425_cop_dnn_c05_oven_10_n04111531_7664.png
vgg,3,866,NaN,oven,oven,c05,3426_cop_dnn_c05_oven_10_n04111531_505.png
vgg,3,867,NaN,boat,oven,c05,3427_cop_dnn_c05_oven_10_n04111531_4050.png
vgg,3,868,NaN,bottle,oven,c05,3428_cop_dnn_c05_oven_10_n04111531_1220.png
vgg,3,869,NaN,clock,oven,c05,3429_cop_dnn_c05_oven_10_n04111531_11225.png
vgg,3,870,NaN,bottle,oven,c05,3430_cop_dnn_c05_oven_10_n04111531_10476.png
vgg,3,871,NaN,bottle,chair,c05,3431_cop_dnn_c05_chair_10_n02791124_4977.png
vgg,3,872,NaN,chair,chair,c05,3432_cop_dnn_c05_chair_10_n04429376_26222.png
vgg,3,873,NaN,chair,chair,c05,3433_cop_dnn_c05_chair_10_n02791124_56.png
vgg,3,874,NaN,chair,chair,c05,3434_cop_dnn_c05_chair_10_n03376595_302.png
vgg,3,875,NaN,chair,chair,c05,3435_cop_dnn_c05_chair_10_n04099969_20684.png
vgg,3,876,NaN,bottle,chair,c05,3436_cop_dnn_c05_chair_10_n04429376_25642.png
vgg,3,877,NaN,chair,chair,c05,3437_cop_dnn_c05_chair_10_n02791124_15845.png
vgg,3,878,NaN,boat,chair,c05,3438_cop_dnn_c05_chair_10_n04429376_9022.png
vgg,3,879,NaN,chair,chair,c05,3439_cop_dnn_c05_chair_10_n04099969_8080.png
vgg,3,880,NaN,chair,chair,c05,3440_cop_dnn_c05_chair_10_n04099969_20567.png
vgg,3,881,NaN,dog,bear,c05,3441_cop_dnn_c05_bear_10_n02133161_2928.png
vgg,3,882,NaN,clock,bear,c05,3442_cop_dnn_c05_bear_10_n02133161_7857.png
vgg,3,883,NaN,bear,bear,c05,3443_cop_dnn_c05_bear_10_n02134418_3774.png
vgg,3,884,NaN,bear,bear,c05,3444_cop_dnn_c05_bear_10_n02134084_12700.png
vgg,3,885,NaN,bear,bear,c05,3445_cop_dnn_c05_bear_10_n02133161_14303.png
vgg,3,886,NaN,bear,bear,c05,3446_cop_dnn_c05_bear_10_n02132136_18695.png
vgg,3,887,NaN,bear,bear,c05,3447_cop_dnn_c05_bear_10_n02132136_8750.png
vgg,3,888,NaN,bear,bear,c05,3448_cop_dnn_c05_bear_10_n02132136_3018.png
vgg,3,889,NaN,bear,bear,c05,3449_cop_dnn_c05_bear_10_n02134418_1652.png
vgg,3,890,NaN,bear,bear,c05,3450_cop_dnn_c05_bear_10_n02134084_622.png
vgg,3,891,NaN,boat,boat,c05,3451_cop_dnn_c05_boat_10_n03344393_4948.png
vgg,3,892,NaN,boat,boat,c05,3452_cop_dnn_c05_boat_10_n03662601_28723.png
vgg,3,893,NaN,boat,boat,c05,3453_cop_dnn_c05_boat_10_n02951358_15252.png
vgg,3,894,NaN,boat,boat,c05,3454_cop_dnn_c05_boat_10_n02951358_10068.png
vgg,3,895,NaN,boat,boat,c05,3455_cop_dnn_c05_boat_10_n03344393_4997.png
vgg,3,896,NaN,boat,boat,c05,3456_cop_dnn_c05_boat_10_n03662601_19488.png
vgg,3,897,NaN,bird,boat,c05,3457_cop_dnn_c05_boat_10_n04273569_4348.png
vgg,3,898,NaN,boat,boat,c05,3458_cop_dnn_c05_boat_10_n03344393_382.png
vgg,3,899,NaN,boat,boat,c05,3459_cop_dnn_c05_boat_10_n03344393_2357.png
vgg,3,900,NaN,airplane,boat,c05,3460_cop_dnn_c05_boat_10_n02951358_11248.png
vgg,3,901,NaN,dog,cat,c05,3461_cop_dnn_c05_cat_10_n02124075_1144.png
vgg,3,902,NaN,cat,cat,c05,3462_cop_dnn_c05_cat_10_n02123597_13551.png
vgg,3,903,NaN,dog,cat,c05,3463_cop_dnn_c05_cat_10_n02123045_5241.png
vgg,3,904,NaN,cat,cat,c05,3464_cop_dnn_c05_cat_10_n02124075_10035.png
vgg,3,905,NaN,cat,cat,c05,3465_cop_dnn_c05_cat_10_n02124075_12672.png
vgg,3,906,NaN,dog,cat,c05,3466_cop_dnn_c05_cat_10_n02123045_397.png
vgg,3,907,NaN,bear,cat,c05,3467_cop_dnn_c05_cat_10_n02123159_2983.png
vgg,3,908,NaN,bottle,cat,c05,3468_cop_dnn_c05_cat_10_n02123394_3718.png
vgg,3,909,NaN,cat,cat,c05,3469_cop_dnn_c05_cat_10_n02124075_9591.png
vgg,3,910,NaN,clock,cat,c05,3470_cop_dnn_c05_cat_10_n02125311_19678.png
vgg,3,911,NaN,bottle,bottle,c05,3471_cop_dnn_c05_bottle_10_n04557648_2649.png
vgg,3,912,NaN,bottle,bottle,c05,3472_cop_dnn_c05_bottle_10_n03937543_6233.png
vgg,3,913,NaN,bottle,bottle,c05,3473_cop_dnn_c05_bottle_10_n03937543_211.png
vgg,3,914,NaN,bottle,bottle,c05,3474_cop_dnn_c05_bottle_10_n04560804_16067.png
vgg,3,915,NaN,bottle,bottle,c05,3475_cop_dnn_c05_bottle_10_n04591713_4270.png
vgg,3,916,NaN,bear,bottle,c05,3476_cop_dnn_c05_bottle_10_n04557648_444.png
vgg,3,917,NaN,bottle,bottle,c05,3477_cop_dnn_c05_bottle_10_n03937543_751.png
vgg,3,918,NaN,bottle,bottle,c05,3478_cop_dnn_c05_bottle_10_n02823428_2847.png
vgg,3,919,NaN,bear,bottle,c05,3479_cop_dnn_c05_bottle_10_n04560804_17340.png
vgg,3,920,NaN,bear,bottle,c05,3480_cop_dnn_c05_bottle_10_n04557648_26820.png
vgg,3,921,NaN,bottle,truck,c05,3481_cop_dnn_c05_truck_10_n04467665_2295.png
vgg,3,922,NaN,truck,truck,c05,3482_cop_dnn_c05_truck_10_n03417042_5600.png
vgg,3,923,NaN,truck,truck,c05,3483_cop_dnn_c05_truck_10_n03417042_23057.png
vgg,3,924,NaN,truck,truck,c05,3484_cop_dnn_c05_truck_10_n04467665_3710.png
vgg,3,925,NaN,boat,truck,c05,3485_cop_dnn_c05_truck_10_n03417042_18699.png
vgg,3,926,NaN,boat,truck,c05,3486_cop_dnn_c05_truck_10_n03417042_11558.png
vgg,3,927,NaN,truck,truck,c05,3487_cop_dnn_c05_truck_10_n04467665_67560.png
vgg,3,928,NaN,boat,truck,c05,3488_cop_dnn_c05_truck_10_n03417042_10538.png
vgg,3,929,NaN,truck,truck,c05,3489_cop_dnn_c05_truck_10_n03796401_3026.png
vgg,3,930,NaN,truck,truck,c05,3490_cop_dnn_c05_truck_10_n04467665_1956.png
vgg,3,931,NaN,car,car,c05,3491_cop_dnn_c05_car_10_n02814533_1178.png
vgg,3,932,NaN,truck,car,c05,3492_cop_dnn_c05_car_10_n02814533_8345.png
vgg,3,933,NaN,bottle,car,c05,3493_cop_dnn_c05_car_10_n03100240_8588.png
vgg,3,934,NaN,car,car,c05,3494_cop_dnn_c05_car_10_n02814533_90798.png
vgg,3,935,NaN,boat,car,c05,3495_cop_dnn_c05_car_10_n03100240_18725.png
vgg,3,936,NaN,truck,car,c05,3496_cop_dnn_c05_car_10_n02814533_2759.png
vgg,3,937,NaN,truck,car,c05,3497_cop_dnn_c05_car_10_n03100240_7429.png
vgg,3,938,NaN,truck,car,c05,3498_cop_dnn_c05_car_10_n04285008_8275.png
vgg,3,939,NaN,bottle,car,c05,3499_cop_dnn_c05_car_10_n03100240_17517.png
vgg,3,940,NaN,bottle,car,c05,3500_cop_dnn_c05_car_10_n04285008_4098.png
vgg,3,941,NaN,dog,bird,c05,3501_cop_dnn_c05_bird_10_n01797886_6067.png
vgg,3,942,NaN,clock,bird,c05,3502_cop_dnn_c05_bird_10_n01820546_11624.png
vgg,3,943,NaN,boat,bird,c05,3503_cop_dnn_c05_bird_10_n01616318_2219.png
vgg,3,944,NaN,bird,bird,c05,3504_cop_dnn_c05_bird_10_n01558993_16562.png
vgg,3,945,NaN,bird,bird,c05,3505_cop_dnn_c05_bird_10_n02025239_7052.png
vgg,3,946,NaN,boat,bird,c05,3506_cop_dnn_c05_bird_10_n01797886_21609.png
vgg,3,947,NaN,clock,bird,c05,3507_cop_dnn_c05_bird_10_n01622779_14695.png
vgg,3,948,NaN,bear,bird,c05,3508_cop_dnn_c05_bird_10_n01843383_5684.png
vgg,3,949,NaN,bird,bird,c05,3509_cop_dnn_c05_bird_10_n02017213_1344.png
vgg,3,950,NaN,bird,bird,c05,3510_cop_dnn_c05_bird_10_n01824575_8598.png
vgg,3,951,NaN,dog,dog,c05,3511_cop_dnn_c05_dog_10_n02097658_5572.png
vgg,3,952,NaN,dog,dog,c05,3512_cop_dnn_c05_dog_10_n02100877_16941.png
vgg,3,953,NaN,dog,dog,c05,3513_cop_dnn_c05_dog_10_n02102177_6532.png
vgg,3,954,NaN,bottle,dog,c05,3514_cop_dnn_c05_dog_10_n02100583_23043.png
vgg,3,955,NaN,dog,dog,c05,3515_cop_dnn_c05_dog_10_n02091467_13304.png
vgg,3,956,NaN,dog,dog,c05,3516_cop_dnn_c05_dog_10_n02106030_13801.png
vgg,3,957,NaN,dog,dog,c05,3517_cop_dnn_c05_dog_10_n02094433_1685.png
vgg,3,958,NaN,dog,dog,c05,3518_cop_dnn_c05_dog_10_n02107142_501.png
vgg,3,959,NaN,dog,dog,c05,3519_cop_dnn_c05_dog_10_n02106550_5499.png
vgg,3,960,NaN,dog,dog,c05,3520_cop_dnn_c05_dog_10_n02107683_2878.png
vgg,3,961,NaN,knife,knife,c03,3521_cop_dnn_c03_knife_10_n03041632_12748.png
vgg,3,962,NaN,boat,knife,c03,3522_cop_dnn_c03_knife_10_n03041632_9157.png
vgg,3,963,NaN,boat,knife,c03,3523_cop_dnn_c03_knife_10_n03041632_5640.png
vgg,3,964,NaN,knife,knife,c03,3524_cop_dnn_c03_knife_10_n03041632_50648.png
vgg,3,965,NaN,boat,knife,c03,3525_cop_dnn_c03_knife_10_n03041632_2319.png
vgg,3,966,NaN,knife,knife,c03,3526_cop_dnn_c03_knife_10_n03041632_8051.png
vgg,3,967,NaN,knife,knife,c03,3527_cop_dnn_c03_knife_10_n03041632_3717.png
vgg,3,968,NaN,knife,knife,c03,3528_cop_dnn_c03_knife_10_n03041632_36235.png
vgg,3,969,NaN,knife,knife,c03,3529_cop_dnn_c03_knife_10_n03041632_11932.png
vgg,3,970,NaN,bottle,knife,c03,3530_cop_dnn_c03_knife_10_n03041632_15431.png
vgg,3,971,NaN,clock,keyboard,c03,3531_cop_dnn_c03_keyboard_10_n03085013_22494.png
vgg,3,972,NaN,keyboard,keyboard,c03,3532_cop_dnn_c03_keyboard_10_n03085013_22447.png
vgg,3,973,NaN,bottle,keyboard,c03,3533_cop_dnn_c03_keyboard_10_n04505470_4490.png
vgg,3,974,NaN,bottle,keyboard,c03,3534_cop_dnn_c03_keyboard_10_n04505470_2114.png
vgg,3,975,NaN,bottle,keyboard,c03,3535_cop_dnn_c03_keyboard_10_n03085013_13494.png
vgg,3,976,NaN,boat,keyboard,c03,3536_cop_dnn_c03_keyboard_10_n03085013_29865.png
vgg,3,977,NaN,bottle,keyboard,c03,3537_cop_dnn_c03_keyboard_10_n04505470_2141.png
vgg,3,978,NaN,bottle,keyboard,c03,3538_cop_dnn_c03_keyboard_10_n04505470_2679.png
vgg,3,979,NaN,keyboard,keyboard,c03,3539_cop_dnn_c03_keyboard_10_n03085013_31364.png
vgg,3,980,NaN,keyboard,keyboard,c03,3540_cop_dnn_c03_keyboard_10_n03085013_8572.png
vgg,3,981,NaN,bear,elephant,c03,3541_cop_dnn_c03_elephant_10_n02504013_19694.png
vgg,3,982,NaN,boat,elephant,c03,3542_cop_dnn_c03_elephant_10_n02504458_7324.png
vgg,3,983,NaN,dog,elephant,c03,3543_cop_dnn_c03_elephant_10_n02504458_10432.png
vgg,3,984,NaN,boat,elephant,c03,3544_cop_dnn_c03_elephant_10_n02504458_7123.png
vgg,3,985,NaN,bear,elephant,c03,3545_cop_dnn_c03_elephant_10_n02504013_7026.png
vgg,3,986,NaN,dog,elephant,c03,3546_cop_dnn_c03_elephant_10_n02504458_574.png
vgg,3,987,NaN,bear,elephant,c03,3547_cop_dnn_c03_elephant_10_n02504458_4401.png
vgg,3,988,NaN,boat,elephant,c03,3548_cop_dnn_c03_elephant_10_n02504013_4044.png
vgg,3,989,NaN,dog,elephant,c03,3549_cop_dnn_c03_elephant_10_n02504458_3891.png
vgg,3,990,NaN,bear,elephant,c03,3550_cop_dnn_c03_elephant_10_n02504458_1157.png
vgg,3,991,NaN,clock,bicycle,c03,3551_cop_dnn_c03_bicycle_10_n03792782_4403.png
vgg,3,992,NaN,bicycle,bicycle,c03,3552_cop_dnn_c03_bicycle_10_n03792782_1642.png
vgg,3,993,NaN,clock,bicycle,c03,3553_cop_dnn_c03_bicycle_10_n02835271_1932.png
vgg,3,994,NaN,boat,bicycle,c03,3554_cop_dnn_c03_bicycle_10_n03792782_52427.png
vgg,3,995,NaN,clock,bicycle,c03,3555_cop_dnn_c03_bicycle_10_n03792782_11417.png
vgg,3,996,NaN,boat,bicycle,c03,3556_cop_dnn_c03_bicycle_10_n02835271_21395.png
vgg,3,997,NaN,clock,bicycle,c03,3557_cop_dnn_c03_bicycle_10_n03792782_31010.png
vgg,3,998,NaN,boat,bicycle,c03,3558_cop_dnn_c03_bicycle_10_n02835271_26339.png
vgg,3,999,NaN,dog,bicycle,c03,3559_cop_dnn_c03_bicycle_10_n02835271_17424.png
vgg,3,1000,NaN,clock,bicycle,c03,3560_cop_dnn_c03_bicycle_10_n02835271_27014.png
vgg,3,1001,NaN,boat,airplane,c03,3561_cop_dnn_c03_airplane_10_n02690373_3090.png
vgg,3,1002,NaN,boat,airplane,c03,3562_cop_dnn_c03_airplane_10_n02690373_5462.png
vgg,3,1003,NaN,airplane,airplane,c03,3563_cop_dnn_c03_airplane_10_n02690373_5221.png
vgg,3,1004,NaN,boat,airplane,c03,3564_cop_dnn_c03_airplane_10_n02690373_4202.png
vgg,3,1005,NaN,airplane,airplane,c03,3565_cop_dnn_c03_airplane_10_n02690373_8770.png
vgg,3,1006,NaN,airplane,airplane,c03,3566_cop_dnn_c03_airplane_10_n02690373_736.png
vgg,3,1007,NaN,airplane,airplane,c03,3567_cop_dnn_c03_airplane_10_n02690373_6682.png
vgg,3,1008,NaN,airplane,airplane,c03,3568_cop_dnn_c03_airplane_10_n02690373_9376.png
vgg,3,1009,NaN,airplane,airplane,c03,3569_cop_dnn_c03_airplane_10_n02690373_6621.png
vgg,3,1010,NaN,airplane,airplane,c03,3570_cop_dnn_c03_airplane_10_n02690373_614.png
vgg,3,1011,NaN,bottle,clock,c03,3571_cop_dnn_c03_clock_10_n04548280_8429.png
vgg,3,1012,NaN,bottle,clock,c03,3572_cop_dnn_c03_clock_10_n04548280_3047.png
vgg,3,1013,NaN,clock,clock,c03,3573_cop_dnn_c03_clock_10_n03196217_6672.png
vgg,3,1014,NaN,clock,clock,c03,3574_cop_dnn_c03_clock_10_n04548280_1108.png
vgg,3,1015,NaN,clock,clock,c03,3575_cop_dnn_c03_clock_10_n02708093_870.png
vgg,3,1016,NaN,boat,clock,c03,3576_cop_dnn_c03_clock_10_n04548280_7069.png
vgg,3,1017,NaN,bottle,clock,c03,3577_cop_dnn_c03_clock_10_n04548280_532.png
vgg,3,1018,NaN,clock,clock,c03,3578_cop_dnn_c03_clock_10_n04548280_1106.png
vgg,3,1019,NaN,bottle,clock,c03,3579_cop_dnn_c03_clock_10_n03196217_1109.png
vgg,3,1020,NaN,knife,clock,c03,3580_cop_dnn_c03_clock_10_n03196217_9563.png
vgg,3,1021,NaN,bottle,oven,c03,3581_cop_dnn_c03_oven_10_n04111531_17045.png
vgg,3,1022,NaN,boat,oven,c03,3582_cop_dnn_c03_oven_10_n04111531_8290.png
vgg,3,1023,NaN,bear,oven,c03,3583_cop_dnn_c03_oven_10_n04111531_2458.png
vgg,3,1024,NaN,bottle,oven,c03,3584_cop_dnn_c03_oven_10_n04111531_10555.png
vgg,3,1025,NaN,boat,oven,c03,3585_cop_dnn_c03_oven_10_n04111531_9297.png
vgg,3,1026,NaN,bear,oven,c03,3586_cop_dnn_c03_oven_10_n04111531_2133.png
vgg,3,1027,NaN,dog,oven,c03,3587_cop_dnn_c03_oven_10_n04111531_3159.png
vgg,3,1028,NaN,chair,oven,c03,3588_cop_dnn_c03_oven_10_n04111531_1750.png
vgg,3,1029,NaN,boat,oven,c03,3589_cop_dnn_c03_oven_10_n04111531_6628.png
vgg,3,1030,NaN,knife,oven,c03,3590_cop_dnn_c03_oven_10_n04111531_4370.png
vgg,3,1031,NaN,boat,chair,c03,3591_cop_dnn_c03_chair_10_n03376595_1417.png
vgg,3,1032,NaN,chair,chair,c03,3592_cop_dnn_c03_chair_10_n03376595_6659.png
vgg,3,1033,NaN,bottle,chair,c03,3593_cop_dnn_c03_chair_10_n02791124_13951.png
vgg,3,1034,NaN,boat,chair,c03,3594_cop_dnn_c03_chair_10_n04429376_21546.png
vgg,3,1035,NaN,boat,chair,c03,3595_cop_dnn_c03_chair_10_n04429376_45184.png
vgg,3,1036,NaN,clock,chair,c03,3596_cop_dnn_c03_chair_10_n03376595_9901.png
vgg,3,1037,NaN,clock,chair,c03,3597_cop_dnn_c03_chair_10_n02791124_9466.png
vgg,3,1038,NaN,chair,chair,c03,3598_cop_dnn_c03_chair_10_n04099969_10458.png
vgg,3,1039,NaN,bottle,chair,c03,3599_cop_dnn_c03_chair_10_n02791124_15739.png
vgg,3,1040,NaN,boat,chair,c03,3600_cop_dnn_c03_chair_10_n02791124_1113.png
vgg,3,1041,NaN,clock,bear,c03,3601_cop_dnn_c03_bear_10_n02133161_8448.png
vgg,3,1042,NaN,dog,bear,c03,3602_cop_dnn_c03_bear_10_n02134418_4979.png
vgg,3,1043,NaN,boat,bear,c03,3603_cop_dnn_c03_bear_10_n02133161_178.png
vgg,3,1044,NaN,clock,bear,c03,3604_cop_dnn_c03_bear_10_n02133161_1204.png
vgg,3,1045,NaN,boat,bear,c03,3605_cop_dnn_c03_bear_10_n02134418_1908.png
vgg,3,1046,NaN,bear,bear,c03,3606_cop_dnn_c03_bear_10_n02133161_489.png
vgg,3,1047,NaN,bear,bear,c03,3607_cop_dnn_c03_bear_10_n02133161_12745.png
vgg,3,1048,NaN,bear,bear,c03,3608_cop_dnn_c03_bear_10_n02134084_27094.png
vgg,3,1049,NaN,bear,bear,c03,3609_cop_dnn_c03_bear_10_n02134084_7868.png
vgg,3,1050,NaN,boat,bear,c03,3610_cop_dnn_c03_bear_10_n02134084_16100.png
vgg,3,1051,NaN,boat,boat,c03,3611_cop_dnn_c03_boat_10_n03662601_16225.png
vgg,3,1052,NaN,boat,boat,c03,3612_cop_dnn_c03_boat_10_n03344393_3032.png
vgg,3,1053,NaN,boat,boat,c03,3613_cop_dnn_c03_boat_10_n03344393_4273.png
vgg,3,1054,NaN,boat,boat,c03,3614_cop_dnn_c03_boat_10_n03662601_8096.png
vgg,3,1055,NaN,boat,boat,c03,3615_cop_dnn_c03_boat_10_n04612504_4259.png
vgg,3,1056,NaN,boat,boat,c03,3616_cop_dnn_c03_boat_10_n03662601_25461.png
vgg,3,1057,NaN,dog,boat,c03,3617_cop_dnn_c03_boat_10_n02951358_3979.png
vgg,3,1058,NaN,boat,boat,c03,3618_cop_dnn_c03_boat_10_n02951358_1059.png
vgg,3,1059,NaN,boat,boat,c03,3619_cop_dnn_c03_boat_10_n03344393_2347.png
vgg,3,1060,NaN,knife,boat,c03,3620_cop_dnn_c03_boat_10_n02951358_8627.png
vgg,3,1061,NaN,dog,cat,c03,3621_cop_dnn_c03_cat_10_n02125311_30364.png
vgg,3,1062,NaN,dog,cat,c03,3622_cop_dnn_c03_cat_10_n02123159_4515.png
vgg,3,1063,NaN,cat,cat,c03,3623_cop_dnn_c03_cat_10_n02123597_2742.png
vgg,3,1064,NaN,boat,cat,c03,3624_cop_dnn_c03_cat_10_n02123597_10199.png
vgg,3,1065,NaN,clock,cat,c03,3625_cop_dnn_c03_cat_10_n02125311_16835.png
vgg,3,1066,NaN,dog,cat,c03,3626_cop_dnn_c03_cat_10_n02123597_28555.png
vgg,3,1067,NaN,cat,cat,c03,3627_cop_dnn_c03_cat_10_n02123045_10510.png
vgg,3,1068,NaN,clock,cat,c03,3628_cop_dnn_c03_cat_10_n02124075_6859.png
vgg,3,1069,NaN,dog,cat,c03,3629_cop_dnn_c03_cat_10_n02123045_1488.png
vgg,3,1070,NaN,clock,cat,c03,3630_cop_dnn_c03_cat_10_n02123394_6530.png
vgg,3,1071,NaN,bottle,bottle,c03,3631_cop_dnn_c03_bottle_10_n03937543_9020.png
vgg,3,1072,NaN,bottle,bottle,c03,3632_cop_dnn_c03_bottle_10_n02823428_3560.png
vgg,3,1073,NaN,boat,bottle,c03,3633_cop_dnn_c03_bottle_10_n03983396_24827.png
vgg,3,1074,NaN,bottle,bottle,c03,3634_cop_dnn_c03_bottle_10_n02823428_10287.png
vgg,3,1075,NaN,clock,bottle,c03,3635_cop_dnn_c03_bottle_10_n03983396_4863.png
vgg,3,1076,NaN,bottle,bottle,c03,3636_cop_dnn_c03_bottle_10_n03937543_2373.png
vgg,3,1077,NaN,bottle,bottle,c03,3637_cop_dnn_c03_bottle_10_n04557648_16526.png
vgg,3,1078,NaN,clock,bottle,c03,3638_cop_dnn_c03_bottle_10_n04591713_14741.png
vgg,3,1079,NaN,bottle,bottle,c03,3639_cop_dnn_c03_bottle_10_n02823428_6008.png
vgg,3,1080,NaN,boat,bottle,c03,3640_cop_dnn_c03_bottle_10_n03983396_4455.png
vgg,3,1081,NaN,boat,truck,c03,3641_cop_dnn_c03_truck_10_n03417042_5488.png
vgg,3,1082,NaN,boat,truck,c03,3642_cop_dnn_c03_truck_10_n04467665_3411.png
vgg,3,1083,NaN,bear,truck,c03,3643_cop_dnn_c03_truck_10_n03417042_5843.png
vgg,3,1084,NaN,boat,truck,c03,3644_cop_dnn_c03_truck_10_n03417042_15592.png
vgg,3,1085,NaN,boat,truck,c03,3645_cop_dnn_c03_truck_10_n03417042_23802.png
vgg,3,1086,NaN,truck,truck,c03,3646_cop_dnn_c03_truck_10_n03417042_19076.png
vgg,3,1087,NaN,boat,truck,c03,3647_cop_dnn_c03_truck_10_n03417042_2103.png
vgg,3,1088,NaN,truck,truck,c03,3648_cop_dnn_c03_truck_10_n03417042_3107.png
vgg,3,1089,NaN,bear,truck,c03,3649_cop_dnn_c03_truck_10_n04467665_56938.png
vgg,3,1090,NaN,truck,truck,c03,3650_cop_dnn_c03_truck_10_n04467665_6814.png
vgg,3,1091,NaN,boat,car,c03,3651_cop_dnn_c03_car_10_n02814533_44906.png
vgg,3,1092,NaN,boat,car,c03,3652_cop_dnn_c03_car_10_n02814533_80808.png
vgg,3,1093,NaN,boat,car,c03,3653_cop_dnn_c03_car_10_n04285008_11410.png
vgg,3,1094,NaN,bottle,car,c03,3654_cop_dnn_c03_car_10_n03100240_2683.png
vgg,3,1095,NaN,car,car,c03,3655_cop_dnn_c03_car_10_n02814533_13802.png
vgg,3,1096,NaN,boat,car,c03,3656_cop_dnn_c03_car_10_n02814533_23648.png
vgg,3,1097,NaN,boat,car,c03,3657_cop_dnn_c03_car_10_n04285008_13223.png
vgg,3,1098,NaN,boat,car,c03,3658_cop_dnn_c03_car_10_n03100240_310.png
vgg,3,1099,NaN,truck,car,c03,3659_cop_dnn_c03_car_10_n02814533_61871.png
vgg,3,1100,NaN,truck,car,c03,3660_cop_dnn_c03_car_10_n03100240_1520.png
vgg,3,1101,NaN,boat,bird,c03,3661_cop_dnn_c03_bird_10_n01582220_11588.png
vgg,3,1102,NaN,boat,bird,c03,3662_cop_dnn_c03_bird_10_n01833805_6222.png
vgg,3,1103,NaN,bird,bird,c03,3663_cop_dnn_c03_bird_10_n01560419_8178.png
vgg,3,1104,NaN,bird,bird,c03,3664_cop_dnn_c03_bird_10_n01534433_20048.png
vgg,3,1105,NaN,bird,bird,c03,3665_cop_dnn_c03_bird_10_n02002724_93.png
vgg,3,1106,NaN,bird,bird,c03,3666_cop_dnn_c03_bird_10_n01532829_19191.png
vgg,3,1107,NaN,boat,bird,c03,3667_cop_dnn_c03_bird_10_n01614925_7662.png
vgg,3,1108,NaN,bird,bird,c03,3668_cop_dnn_c03_bird_10_n01819313_243.png
vgg,3,1109,NaN,boat,bird,c03,3669_cop_dnn_c03_bird_10_n02056570_7304.png
vgg,3,1110,NaN,bird,bird,c03,3670_cop_dnn_c03_bird_10_n02051845_9277.png
vgg,3,1111,NaN,dog,dog,c03,3671_cop_dnn_c03_dog_10_n02107142_2130.png
vgg,3,1112,NaN,cat,dog,c03,3672_cop_dnn_c03_dog_10_n02112350_3860.png
vgg,3,1113,NaN,boat,dog,c03,3673_cop_dnn_c03_dog_10_n02106382_13276.png
vgg,3,1114,NaN,bear,dog,c03,3674_cop_dnn_c03_dog_10_n02109047_2264.png
vgg,3,1115,NaN,dog,dog,c03,3675_cop_dnn_c03_dog_10_n02091032_5397.png
vgg,3,1116,NaN,dog,dog,c03,3676_cop_dnn_c03_dog_10_n02093991_2498.png
vgg,3,1117,NaN,boat,dog,c03,3677_cop_dnn_c03_dog_10_n02111129_7678.png
vgg,3,1118,NaN,dog,dog,c03,3678_cop_dnn_c03_dog_10_n02094114_457.png
vgg,3,1119,NaN,boat,dog,c03,3679_cop_dnn_c03_dog_10_n02107142_19568.png
vgg,3,1120,NaN,dog,dog,c03,3680_cop_dnn_c03_dog_10_n02106030_13273.png
vgg,3,1121,NaN,boat,knife,c01,3681_cop_dnn_c01_knife_10_n03041632_14546.png
vgg,3,1122,NaN,boat,knife,c01,3682_cop_dnn_c01_knife_10_n03041632_39883.png
vgg,3,1123,NaN,knife,knife,c01,3683_cop_dnn_c01_knife_10_n03041632_3159.png
vgg,3,1124,NaN,dog,knife,c01,3684_cop_dnn_c01_knife_10_n03041632_33225.png
vgg,3,1125,NaN,bird,knife,c01,3685_cop_dnn_c01_knife_10_n03041632_12651.png
vgg,3,1126,NaN,boat,knife,c01,3686_cop_dnn_c01_knife_10_n03041632_19866.png
vgg,3,1127,NaN,boat,knife,c01,3687_cop_dnn_c01_knife_10_n03041632_11603.png
vgg,3,1128,NaN,boat,knife,c01,3688_cop_dnn_c01_knife_10_n03041632_87380.png
vgg,3,1129,NaN,bird,knife,c01,3689_cop_dnn_c01_knife_10_n03041632_30573.png
vgg,3,1130,NaN,boat,knife,c01,3690_cop_dnn_c01_knife_10_n03041632_9580.png
vgg,3,1131,NaN,knife,keyboard,c01,3691_cop_dnn_c01_keyboard_10_n03085013_785.png
vgg,3,1132,NaN,bird,keyboard,c01,3692_cop_dnn_c01_keyboard_10_n03085013_19065.png
vgg,3,1133,NaN,clock,keyboard,c01,3693_cop_dnn_c01_keyboard_10_n03085013_23008.png
vgg,3,1134,NaN,bird,keyboard,c01,3694_cop_dnn_c01_keyboard_10_n03085013_9156.png
vgg,3,1135,NaN,boat,keyboard,c01,3695_cop_dnn_c01_keyboard_10_n03085013_23904.png
vgg,3,1136,NaN,clock,keyboard,c01,3696_cop_dnn_c01_keyboard_10_n03085013_3804.png
vgg,3,1137,NaN,boat,keyboard,c01,3697_cop_dnn_c01_keyboard_10_n03085013_23503.png
vgg,3,1138,NaN,boat,keyboard,c01,3698_cop_dnn_c01_keyboard_10_n03085013_6160.png
vgg,3,1139,NaN,clock,keyboard,c01,3699_cop_dnn_c01_keyboard_10_n03085013_20792.png
vgg,3,1140,NaN,clock,keyboard,c01,3700_cop_dnn_c01_keyboard_10_n03085013_18966.png
vgg,3,1141,NaN,bird,elephant,c01,3701_cop_dnn_c01_elephant_10_n02504458_2399.png
vgg,3,1142,NaN,bear,elephant,c01,3702_cop_dnn_c01_elephant_10_n02504458_10058.png
vgg,3,1143,NaN,boat,elephant,c01,3703_cop_dnn_c01_elephant_10_n02504458_2442.png
vgg,3,1144,NaN,bird,elephant,c01,3704_cop_dnn_c01_elephant_10_n02504013_11708.png
vgg,3,1145,NaN,boat,elephant,c01,3705_cop_dnn_c01_elephant_10_n02504013_3857.png
vgg,3,1146,NaN,boat,elephant,c01,3706_cop_dnn_c01_elephant_10_n02504458_1249.png
vgg,3,1147,NaN,bird,elephant,c01,3707_cop_dnn_c01_elephant_10_n02504013_1255.png
vgg,3,1148,NaN,clock,elephant,c01,3708_cop_dnn_c01_elephant_10_n02504458_677.png
vgg,3,1149,NaN,boat,elephant,c01,3709_cop_dnn_c01_elephant_10_n02504458_6172.png
vgg,3,1150,NaN,bird,elephant,c01,3710_cop_dnn_c01_elephant_10_n02504458_5178.png
vgg,3,1151,NaN,bird,bicycle,c01,3711_cop_dnn_c01_bicycle_10_n03792782_1755.png
vgg,3,1152,NaN,boat,bicycle,c01,3712_cop_dnn_c01_bicycle_10_n02835271_24498.png
vgg,3,1153,NaN,boat,bicycle,c01,3713_cop_dnn_c01_bicycle_10_n02835271_10738.png
vgg,3,1154,NaN,dog,bicycle,c01,3714_cop_dnn_c01_bicycle_10_n02835271_3256.png
vgg,3,1155,NaN,boat,bicycle,c01,3715_cop_dnn_c01_bicycle_10_n03792782_12844.png
vgg,3,1156,NaN,bird,bicycle,c01,3716_cop_dnn_c01_bicycle_10_n03792782_10655.png
vgg,3,1157,NaN,bird,bicycle,c01,3717_cop_dnn_c01_bicycle_10_n03792782_6894.png
vgg,3,1158,NaN,bottle,bicycle,c01,3718_cop_dnn_c01_bicycle_10_n03792782_3892.png
vgg,3,1159,NaN,bird,bicycle,c01,3719_cop_dnn_c01_bicycle_10_n03792782_774.png
vgg,3,1160,NaN,boat,bicycle,c01,3720_cop_dnn_c01_bicycle_10_n03792782_378.png
vgg,3,1161,NaN,bird,airplane,c01,3721_cop_dnn_c01_airplane_10_n02690373_5564.png
vgg,3,1162,NaN,boat,airplane,c01,3722_cop_dnn_c01_airplane_10_n02690373_7721.png
vgg,3,1163,NaN,airplane,airplane,c01,3723_cop_dnn_c01_airplane_10_n02690373_4895.png
vgg,3,1164,NaN,bird,airplane,c01,3724_cop_dnn_c01_airplane_10_n02690373_4754.png
vgg,3,1165,NaN,bird,airplane,c01,3725_cop_dnn_c01_airplane_10_n02690373_1821.png
vgg,3,1166,NaN,boat,airplane,c01,3726_cop_dnn_c01_airplane_10_n02690373_4706.png
vgg,3,1167,NaN,boat,airplane,c01,3727_cop_dnn_c01_airplane_10_n02690373_6200.png
vgg,3,1168,NaN,airplane,airplane,c01,3728_cop_dnn_c01_airplane_10_n02690373_1615.png
vgg,3,1169,NaN,clock,airplane,c01,3729_cop_dnn_c01_airplane_10_n02690373_20331.png
vgg,3,1170,NaN,bird,airplane,c01,3730_cop_dnn_c01_airplane_10_n02690373_1986.png
vgg,3,1171,NaN,bottle,clock,c01,3731_cop_dnn_c01_clock_10_n02708093_3410.png
vgg,3,1172,NaN,clock,clock,c01,3732_cop_dnn_c01_clock_10_n03196217_4309.png
vgg,3,1173,NaN,clock,clock,c01,3733_cop_dnn_c01_clock_10_n04548280_15157.png
vgg,3,1174,NaN,boat,clock,c01,3734_cop_dnn_c01_clock_10_n02708093_8104.png
vgg,3,1175,NaN,clock,clock,c01,3735_cop_dnn_c01_clock_10_n02708093_3459.png
vgg,3,1176,NaN,clock,clock,c01,3736_cop_dnn_c01_clock_10_n04548280_1413.png
vgg,3,1177,NaN,clock,clock,c01,3737_cop_dnn_c01_clock_10_n03196217_13380.png
vgg,3,1178,NaN,bottle,clock,c01,3738_cop_dnn_c01_clock_10_n03196217_11614.png
vgg,3,1179,NaN,knife,clock,c01,3739_cop_dnn_c01_clock_10_n03196217_10424.png
vgg,3,1180,NaN,bird,clock,c01,3740_cop_dnn_c01_clock_10_n02708093_1002.png
vgg,3,1181,NaN,bird,oven,c01,3741_cop_dnn_c01_oven_10_n04111531_3098.png
vgg,3,1182,NaN,boat,oven,c01,3742_cop_dnn_c01_oven_10_n04111531_11470.png
vgg,3,1183,NaN,boat,oven,c01,3743_cop_dnn_c01_oven_10_n04111531_6533.png
vgg,3,1184,NaN,clock,oven,c01,3744_cop_dnn_c01_oven_10_n04111531_2715.png
vgg,3,1185,NaN,bottle,oven,c01,3745_cop_dnn_c01_oven_10_n04111531_3886.png
vgg,3,1186,NaN,clock,oven,c01,3746_cop_dnn_c01_oven_10_n04111531_2758.png
vgg,3,1187,NaN,bear,oven,c01,3747_cop_dnn_c01_oven_10_n04111531_19576.png
vgg,3,1188,NaN,clock,oven,c01,3748_cop_dnn_c01_oven_10_n04111531_6810.png
vgg,3,1189,NaN,bird,oven,c01,3749_cop_dnn_c01_oven_10_n04111531_9781.png
vgg,3,1190,NaN,bird,oven,c01,3750_cop_dnn_c01_oven_10_n04111531_12408.png
vgg,3,1191,NaN,bottle,chair,c01,3751_cop_dnn_c01_chair_10_n02791124_3411.png
vgg,3,1192,NaN,bottle,chair,c01,3752_cop_dnn_c01_chair_10_n02791124_2610.png
vgg,3,1193,NaN,clock,chair,c01,3753_cop_dnn_c01_chair_10_n02791124_15850.png
vgg,3,1194,NaN,clock,chair,c01,3754_cop_dnn_c01_chair_10_n04429376_3278.png
vgg,3,1195,NaN,bird,chair,c01,3755_cop_dnn_c01_chair_10_n04099969_4541.png
vgg,3,1196,NaN,bottle,chair,c01,3756_cop_dnn_c01_chair_10_n02791124_12475.png
vgg,3,1197,NaN,boat,chair,c01,3757_cop_dnn_c01_chair_10_n04099969_2127.png
vgg,3,1198,NaN,boat,chair,c01,3758_cop_dnn_c01_chair_10_n04429376_7393.png
vgg,3,1199,NaN,clock,chair,c01,3759_cop_dnn_c01_chair_10_n04429376_39754.png
vgg,3,1200,NaN,clock,chair,c01,3760_cop_dnn_c01_chair_10_n04099969_16773.png
vgg,3,1201,NaN,boat,bear,c01,3761_cop_dnn_c01_bear_10_n02132136_9684.png
vgg,3,1202,NaN,bird,bear,c01,3762_cop_dnn_c01_bear_10_n02133161_338.png
vgg,3,1203,NaN,boat,bear,c01,3763_cop_dnn_c01_bear_10_n02134418_4480.png
vgg,3,1204,NaN,bird,bear,c01,3764_cop_dnn_c01_bear_10_n02132136_4203.png
vgg,3,1205,NaN,bear,bear,c01,3765_cop_dnn_c01_bear_10_n02134418_2535.png
vgg,3,1206,NaN,boat,bear,c01,3766_cop_dnn_c01_bear_10_n02132136_11149.png
vgg,3,1207,NaN,boat,bear,c01,3767_cop_dnn_c01_bear_10_n02133161_4262.png
vgg,3,1208,NaN,clock,bear,c01,3768_cop_dnn_c01_bear_10_n02133161_9962.png
vgg,3,1209,NaN,bird,bear,c01,3769_cop_dnn_c01_bear_10_n02133161_4559.png
vgg,3,1210,NaN,boat,bear,c01,3770_cop_dnn_c01_bear_10_n02134084_2965.png
vgg,3,1211,NaN,boat,boat,c01,3771_cop_dnn_c01_boat_10_n03344393_7339.png
vgg,3,1212,NaN,boat,boat,c01,3772_cop_dnn_c01_boat_10_n03344393_8670.png
vgg,3,1213,NaN,bird,boat,c01,3773_cop_dnn_c01_boat_10_n03344393_10193.png
vgg,3,1214,NaN,bird,boat,c01,3774_cop_dnn_c01_boat_10_n03344393_3048.png
vgg,3,1215,NaN,boat,boat,c01,3775_cop_dnn_c01_boat_10_n04612504_33904.png
vgg,3,1216,NaN,bird,boat,c01,3776_cop_dnn_c01_boat_10_n03662601_16811.png
vgg,3,1217,NaN,boat,boat,c01,3777_cop_dnn_c01_boat_10_n02951358_6637.png
vgg,3,1218,NaN,boat,boat,c01,3778_cop_dnn_c01_boat_10_n03344393_8554.png
vgg,3,1219,NaN,boat,boat,c01,3779_cop_dnn_c01_boat_10_n04612504_21525.png
vgg,3,1220,NaN,bird,boat,c01,3780_cop_dnn_c01_boat_10_n04273569_12318.png
vgg,3,1221,NaN,bird,cat,c01,3781_cop_dnn_c01_cat_10_n02123394_2147.png
vgg,3,1222,NaN,boat,cat,c01,3782_cop_dnn_c01_cat_10_n02123159_1102.png
vgg,3,1223,NaN,clock,cat,c01,3783_cop_dnn_c01_cat_10_n02123159_6419.png
vgg,3,1224,NaN,boat,cat,c01,3784_cop_dnn_c01_cat_10_n02124075_8277.png
vgg,3,1225,NaN,boat,cat,c01,3785_cop_dnn_c01_cat_10_n02123597_10596.png
vgg,3,1226,NaN,boat,cat,c01,3786_cop_dnn_c01_cat_10_n02123597_1410.png
vgg,3,1227,NaN,boat,cat,c01,3787_cop_dnn_c01_cat_10_n02123394_7807.png
vgg,3,1228,NaN,boat,cat,c01,3788_cop_dnn_c01_cat_10_n02123597_9823.png
vgg,3,1229,NaN,bird,cat,c01,3789_cop_dnn_c01_cat_10_n02123394_5334.png
vgg,3,1230,NaN,boat,cat,c01,3790_cop_dnn_c01_cat_10_n02123394_646.png
vgg,3,1231,NaN,clock,bottle,c01,3791_cop_dnn_c01_bottle_10_n04591713_4735.png
vgg,3,1232,NaN,boat,bottle,c01,3792_cop_dnn_c01_bottle_10_n04557648_4420.png
vgg,3,1233,NaN,bottle,bottle,c01,3793_cop_dnn_c01_bottle_10_n03937543_74.png
vgg,3,1234,NaN,clock,bottle,c01,3794_cop_dnn_c01_bottle_10_n02823428_3497.png
vgg,3,1235,NaN,bottle,bottle,c01,3795_cop_dnn_c01_bottle_10_n04579145_3758.png
vgg,3,1236,NaN,bottle,bottle,c01,3796_cop_dnn_c01_bottle_10_n04579145_6571.png
vgg,3,1237,NaN,boat,bottle,c01,3797_cop_dnn_c01_bottle_10_n04591713_3753.png
vgg,3,1238,NaN,bird,bottle,c01,3798_cop_dnn_c01_bottle_10_n04557648_5459.png
vgg,3,1239,NaN,boat,bottle,c01,3799_cop_dnn_c01_bottle_10_n04579145_547.png
vgg,3,1240,NaN,bottle,bottle,c01,3800_cop_dnn_c01_bottle_10_n04560804_8159.png
vgg,3,1241,NaN,boat,truck,c01,3801_cop_dnn_c01_truck_10_n04467665_2559.png
vgg,3,1242,NaN,clock,truck,c01,3802_cop_dnn_c01_truck_10_n03796401_8463.png
vgg,3,1243,NaN,boat,truck,c01,3803_cop_dnn_c01_truck_10_n03417042_5952.png
vgg,3,1244,NaN,boat,truck,c01,3804_cop_dnn_c01_truck_10_n03417042_7621.png
vgg,3,1245,NaN,boat,truck,c01,3805_cop_dnn_c01_truck_10_n03417042_5682.png
vgg,3,1246,NaN,boat,truck,c01,3806_cop_dnn_c01_truck_10_n03417042_30.png
vgg,3,1247,NaN,boat,truck,c01,3807_cop_dnn_c01_truck_10_n03796401_19153.png
vgg,3,1248,NaN,boat,truck,c01,3808_cop_dnn_c01_truck_10_n04467665_10529.png
vgg,3,1249,NaN,clock,truck,c01,3809_cop_dnn_c01_truck_10_n03417042_816.png
vgg,3,1250,NaN,boat,truck,c01,3810_cop_dnn_c01_truck_10_n03417042_16389.png
vgg,3,1251,NaN,knife,car,c01,3811_cop_dnn_c01_car_10_n03100240_4633.png
vgg,3,1252,NaN,knife,car,c01,3812_cop_dnn_c01_car_10_n04285008_7760.png
vgg,3,1253,NaN,bottle,car,c01,3813_cop_dnn_c01_car_10_n03100240_2166.png
vgg,3,1254,NaN,boat,car,c01,3814_cop_dnn_c01_car_10_n04285008_10832.png
vgg,3,1255,NaN,bird,car,c01,3815_cop_dnn_c01_car_10_n03100240_9454.png
vgg,3,1256,NaN,bottle,car,c01,3816_cop_dnn_c01_car_10_n03100240_14799.png
vgg,3,1257,NaN,boat,car,c01,3817_cop_dnn_c01_car_10_n03100240_2668.png
vgg,3,1258,NaN,bird,car,c01,3818_cop_dnn_c01_car_10_n02814533_10557.png
vgg,3,1259,NaN,boat,car,c01,3819_cop_dnn_c01_car_10_n02814533_22889.png
vgg,3,1260,NaN,boat,car,c01,3820_cop_dnn_c01_car_10_n02814533_4689.png
vgg,3,1261,NaN,boat,bird,c01,3821_cop_dnn_c01_bird_10_n01860187_790.png
vgg,3,1262,NaN,bird,bird,c01,3822_cop_dnn_c01_bird_10_n02037110_18823.png
vgg,3,1263,NaN,bird,bird,c01,3823_cop_dnn_c01_bird_10_n02037110_9266.png
vgg,3,1264,NaN,boat,bird,c01,3824_cop_dnn_c01_bird_10_n01616318_334.png
vgg,3,1265,NaN,bird,bird,c01,3825_cop_dnn_c01_bird_10_n02033041_14924.png
vgg,3,1266,NaN,bear,bird,c01,3826_cop_dnn_c01_bird_10_n01558993_10514.png
vgg,3,1267,NaN,bear,bird,c01,3827_cop_dnn_c01_bird_10_n01855672_11785.png
vgg,3,1268,NaN,bird,bird,c01,3828_cop_dnn_c01_bird_10_n02033041_7085.png
vgg,3,1269,NaN,boat,bird,c01,3829_cop_dnn_c01_bird_10_n01824575_11453.png
vgg,3,1270,NaN,bird,bird,c01,3830_cop_dnn_c01_bird_10_n01833805_7514.png
vgg,3,1271,NaN,boat,dog,c01,3831_cop_dnn_c01_dog_10_n02107683_2003.png
vgg,3,1272,NaN,bear,dog,c01,3832_cop_dnn_c01_dog_10_n02110185_8375.png
vgg,3,1273,NaN,bird,dog,c01,3833_cop_dnn_c01_dog_10_n02107142_48640.png
vgg,3,1274,NaN,bird,dog,c01,3834_cop_dnn_c01_dog_10_n02088466_4230.png
vgg,3,1275,NaN,bear,dog,c01,3835_cop_dnn_c01_dog_10_n02085936_19731.png
vgg,3,1276,NaN,boat,dog,c01,3836_cop_dnn_c01_dog_10_n02088466_8775.png
vgg,3,1277,NaN,boat,dog,c01,3837_cop_dnn_c01_dog_10_n02107574_1801.png
vgg,3,1278,NaN,boat,dog,c01,3838_cop_dnn_c01_dog_10_n02099601_6699.png
vgg,3,1279,NaN,boat,dog,c01,3839_cop_dnn_c01_dog_10_n02091635_3336.png
vgg,3,1280,NaN,boat,dog,c01,3840_cop_dnn_c01_dog_10_n02108422_10315.png
