subj,session,trial,rt,object_response,category,condition,imagename
googlenet,5,1,NaN,knife,knife,c100,5121_cop_dnn_c100_knife_10_n03041632_31037.png
googlenet,5,2,NaN,knife,knife,c100,5122_cop_dnn_c100_knife_10_n03041632_26053.png
googlenet,5,3,NaN,knife,knife,c100,5123_cop_dnn_c100_knife_10_n03041632_18766.png
googlenet,5,4,NaN,bottle,knife,c100,5124_cop_dnn_c100_knife_10_n03041632_26933.png
googlenet,5,5,NaN,knife,knife,c100,5125_cop_dnn_c100_knife_10_n03041632_101553.png
googlenet,5,6,NaN,knife,knife,c100,5126_cop_dnn_c100_knife_10_n03041632_9759.png
googlenet,5,7,NaN,knife,knife,c100,5127_cop_dnn_c100_knife_10_n03041632_18601.png
googlenet,5,8,NaN,knife,knife,c100,5128_cop_dnn_c100_knife_10_n03041632_47743.png
googlenet,5,9,NaN,knife,knife,c100,5129_cop_dnn_c100_knife_10_n03041632_27848.png
googlenet,5,10,NaN,knife,knife,c100,5130_cop_dnn_c100_knife_10_n03041632_21017.png
googlenet,5,11,NaN,keyboard,keyboard,c100,5131_cop_dnn_c100_keyboard_10_n04505470_989.png
googlenet,5,12,NaN,keyboard,keyboard,c100,5132_cop_dnn_c100_keyboard_10_n03085013_21183.png
googlenet,5,13,NaN,keyboard,keyboard,c100,5133_cop_dnn_c100_keyboard_10_n04505470_4742.png
googlenet,5,14,NaN,keyboard,keyboard,c100,5134_cop_dnn_c100_keyboard_10_n04505470_4356.png
googlenet,5,15,NaN,keyboard,keyboard,c100,5135_cop_dnn_c100_keyboard_10_n04505470_7015.png
googlenet,5,16,NaN,keyboard,keyboard,c100,5136_cop_dnn_c100_keyboard_10_n03085013_21444.png
googlenet,5,17,NaN,keyboard,keyboard,c100,5137_cop_dnn_c100_keyboard_10_n03085013_14427.png
googlenet,5,18,NaN,keyboard,keyboard,c100,5138_cop_dnn_c100_keyboard_10_n03085013_7010.png
googlenet,5,19,NaN,keyboard,keyboard,c100,5139_cop_dnn_c100_keyboard_10_n04505470_1342.png
googlenet,5,20,NaN,keyboard,keyboard,c100,5140_cop_dnn_c100_keyboard_10_n03085013_20180.png
googlenet,5,21,NaN,elephant,elephant,c100,5141_cop_dnn_c100_elephant_10_n02504013_4099.png
googlenet,5,22,NaN,elephant,elephant,c100,5142_cop_dnn_c100_elephant_10_n02504013_13512.png
googlenet,5,23,NaN,elephant,elephant,c100,5143_cop_dnn_c100_elephant_10_n02504013_1585.png
googlenet,5,24,NaN,elephant,elephant,c100,5144_cop_dnn_c100_elephant_10_n02504013_2640.png
googlenet,5,25,NaN,elephant,elephant,c100,5145_cop_dnn_c100_elephant_10_n02504458_1471.png
googlenet,5,26,NaN,elephant,elephant,c100,5146_cop_dnn_c100_elephant_10_n02504458_6368.png
googlenet,5,27,NaN,elephant,elephant,c100,5147_cop_dnn_c100_elephant_10_n02504013_252.png
googlenet,5,28,NaN,elephant,elephant,c100,5148_cop_dnn_c100_elephant_10_n02504013_446.png
googlenet,5,29,NaN,elephant,elephant,c100,5149_cop_dnn_c100_elephant_10_n02504458_6694.png
googlenet,5,30,NaN,elephant,elephant,c100,5150_cop_dnn_c100_elephant_10_n02504013_10506.png
googlenet,5,31,NaN,bicycle,bicycle,c100,5151_cop_dnn_c100_bicycle_10_n03792782_16034.png
googlenet,5,32,NaN,bicycle,bicycle,c100,5152_cop_dnn_c100_bicycle_10_n03792782_8204.png
googlenet,5,33,NaN,bicycle,bicycle,c100,5153_cop_dnn_c100_bicycle_10_n03792782_1412.png
googlenet,5,34,NaN,bicycle,bicycle,c100,5154_cop_dnn_c100_bicycle_10_n03792782_4502.png
googlenet,5,35,NaN,bicycle,bicycle,c100,5155_cop_dnn_c100_bicycle_10_n02835271_10414.png
googlenet,5,36,NaN,bicycle,bicycle,c100,5156_cop_dnn_c100_bicycle_10_n03792782_22620.png
googlenet,5,37,NaN,bicycle,bicycle,c100,5157_cop_dnn_c100_bicycle_10_n03792782_18665.png
googlenet,5,38,NaN,bicycle,bicycle,c100,5158_cop_dnn_c100_bicycle_10_n02835271_445.png
googlenet,5,39,NaN,bicycle,bicycle,c100,5159_cop_dnn_c100_bicycle_10_n03792782_1155.png
googlenet,5,40,NaN,bicycle,bicycle,c100,5160_cop_dnn_c100_bicycle_10_n02835271_12806.png
googlenet,5,41,NaN,airplane,airplane,c100,5161_cop_dnn_c100_airplane_10_n02690373_8204.png
googlenet,5,42,NaN,airplane,airplane,c100,5162_cop_dnn_c100_airplane_10_n02690373_5628.png
googlenet,5,43,NaN,airplane,airplane,c100,5163_cop_dnn_c100_airplane_10_n02690373_6534.png
googlenet,5,44,NaN,airplane,airplane,c100,5164_cop_dnn_c100_airplane_10_n02690373_15392.png
googlenet,5,45,NaN,airplane,airplane,c100,5165_cop_dnn_c100_airplane_10_n02690373_8740.png
googlenet,5,46,NaN,airplane,airplane,c100,5166_cop_dnn_c100_airplane_10_n02690373_7093.png
googlenet,5,47,NaN,airplane,airplane,c100,5167_cop_dnn_c100_airplane_10_n02690373_1310.png
googlenet,5,48,NaN,airplane,airplane,c100,5168_cop_dnn_c100_airplane_10_n02690373_17307.png
googlenet,5,49,NaN,airplane,airplane,c100,5169_cop_dnn_c100_airplane_10_n02690373_9170.png
googlenet,5,50,NaN,airplane,airplane,c100,5170_cop_dnn_c100_airplane_10_n02690373_7145.png
googlenet,5,51,NaN,clock,clock,c100,5171_cop_dnn_c100_clock_10_n03196217_727.png
googlenet,5,52,NaN,clock,clock,c100,5172_cop_dnn_c100_clock_10_n04548280_5466.png
googlenet,5,53,NaN,clock,clock,c100,5173_cop_dnn_c100_clock_10_n04548280_8024.png
googlenet,5,54,NaN,clock,clock,c100,5174_cop_dnn_c100_clock_10_n04548280_2989.png
googlenet,5,55,NaN,clock,clock,c100,5175_cop_dnn_c100_clock_10_n03196217_5149.png
googlenet,5,56,NaN,clock,clock,c100,5176_cop_dnn_c100_clock_10_n04548280_3303.png
googlenet,5,57,NaN,clock,clock,c100,5177_cop_dnn_c100_clock_10_n03196217_8217.png
googlenet,5,58,NaN,clock,clock,c100,5178_cop_dnn_c100_clock_10_n04548280_1245.png
googlenet,5,59,NaN,clock,clock,c100,5179_cop_dnn_c100_clock_10_n03196217_911.png
googlenet,5,60,NaN,clock,clock,c100,5180_cop_dnn_c100_clock_10_n04548280_4073.png
googlenet,5,61,NaN,oven,oven,c100,5181_cop_dnn_c100_oven_10_n04111531_21366.png
googlenet,5,62,NaN,oven,oven,c100,5182_cop_dnn_c100_oven_10_n04111531_22872.png
googlenet,5,63,NaN,oven,oven,c100,5183_cop_dnn_c100_oven_10_n04111531_5241.png
googlenet,5,64,NaN,oven,oven,c100,5184_cop_dnn_c100_oven_10_n04111531_9822.png
googlenet,5,65,NaN,oven,oven,c100,5185_cop_dnn_c100_oven_10_n04111531_4146.png
googlenet,5,66,NaN,oven,oven,c100,5186_cop_dnn_c100_oven_10_n04111531_9915.png
googlenet,5,67,NaN,oven,oven,c100,5187_cop_dnn_c100_oven_10_n04111531_11589.png
googlenet,5,68,NaN,oven,oven,c100,5188_cop_dnn_c100_oven_10_n04111531_121.png
googlenet,5,69,NaN,oven,oven,c100,5189_cop_dnn_c100_oven_10_n04111531_2207.png
googlenet,5,70,NaN,oven,oven,c100,5190_cop_dnn_c100_oven_10_n04111531_6609.png
googlenet,5,71,NaN,chair,chair,c100,5191_cop_dnn_c100_chair_10_n02791124_5673.png
googlenet,5,72,NaN,chair,chair,c100,5192_cop_dnn_c100_chair_10_n02791124_1770.png
googlenet,5,73,NaN,chair,chair,c100,5193_cop_dnn_c100_chair_10_n03376595_5972.png
googlenet,5,74,NaN,chair,chair,c100,5194_cop_dnn_c100_chair_10_n04099969_1444.png
googlenet,5,75,NaN,chair,chair,c100,5195_cop_dnn_c100_chair_10_n02791124_2999.png
googlenet,5,76,NaN,chair,chair,c100,5196_cop_dnn_c100_chair_10_n02791124_2369.png
googlenet,5,77,NaN,chair,chair,c100,5197_cop_dnn_c100_chair_10_n02791124_5079.png
googlenet,5,78,NaN,chair,chair,c100,5198_cop_dnn_c100_chair_10_n04099969_10974.png
googlenet,5,79,NaN,chair,chair,c100,5199_cop_dnn_c100_chair_10_n04429376_8355.png
googlenet,5,80,NaN,chair,chair,c100,5200_cop_dnn_c100_chair_10_n04429376_13452.png
googlenet,5,81,NaN,cat,bear,c100,5201_cop_dnn_c100_bear_10_n02132136_7253.png
googlenet,5,82,NaN,bear,bear,c100,5202_cop_dnn_c100_bear_10_n02133161_7712.png
googlenet,5,83,NaN,bear,bear,c100,5203_cop_dnn_c100_bear_10_n02132136_2985.png
googlenet,5,84,NaN,bear,bear,c100,5204_cop_dnn_c100_bear_10_n02134084_15558.png
googlenet,5,85,NaN,bear,bear,c100,5205_cop_dnn_c100_bear_10_n02134084_2267.png
googlenet,5,86,NaN,bear,bear,c100,5206_cop_dnn_c100_bear_10_n02132136_2248.png
googlenet,5,87,NaN,bear,bear,c100,5207_cop_dnn_c100_bear_10_n02134084_13075.png
googlenet,5,88,NaN,dog,bear,c100,5208_cop_dnn_c100_bear_10_n02132136_9515.png
googlenet,5,89,NaN,bear,bear,c100,5209_cop_dnn_c100_bear_10_n02134084_39112.png
googlenet,5,90,NaN,dog,bear,c100,5210_cop_dnn_c100_bear_10_n02133161_2173.png
googlenet,5,91,NaN,boat,boat,c100,5211_cop_dnn_c100_boat_10_n03344393_8626.png
googlenet,5,92,NaN,boat,boat,c100,5212_cop_dnn_c100_boat_10_n03344393_6606.png
googlenet,5,93,NaN,boat,boat,c100,5213_cop_dnn_c100_boat_10_n02951358_13561.png
googlenet,5,94,NaN,boat,boat,c100,5214_cop_dnn_c100_boat_10_n02951358_2899.png
googlenet,5,95,NaN,airplane,boat,c100,5215_cop_dnn_c100_boat_10_n04273569_11744.png
googlenet,5,96,NaN,boat,boat,c100,5216_cop_dnn_c100_boat_10_n04273569_15356.png
googlenet,5,97,NaN,boat,boat,c100,5217_cop_dnn_c100_boat_10_n03662601_13834.png
googlenet,5,98,NaN,boat,boat,c100,5218_cop_dnn_c100_boat_10_n03344393_7362.png
googlenet,5,99,NaN,boat,boat,c100,5219_cop_dnn_c100_boat_10_n03662601_1229.png
googlenet,5,100,NaN,boat,boat,c100,5220_cop_dnn_c100_boat_10_n03344393_375.png
googlenet,5,101,NaN,cat,cat,c100,5221_cop_dnn_c100_cat_10_n02124075_11068.png
googlenet,5,102,NaN,cat,cat,c100,5222_cop_dnn_c100_cat_10_n02123597_11492.png
googlenet,5,103,NaN,cat,cat,c100,5223_cop_dnn_c100_cat_10_n02123394_4096.png
googlenet,5,104,NaN,cat,cat,c100,5224_cop_dnn_c100_cat_10_n02123159_4650.png
googlenet,5,105,NaN,cat,cat,c100,5225_cop_dnn_c100_cat_10_n02123394_5988.png
googlenet,5,106,NaN,cat,cat,c100,5226_cop_dnn_c100_cat_10_n02125311_21937.png
googlenet,5,107,NaN,cat,cat,c100,5227_cop_dnn_c100_cat_10_n02123394_3516.png
googlenet,5,108,NaN,cat,cat,c100,5228_cop_dnn_c100_cat_10_n02124075_13436.png
googlenet,5,109,NaN,cat,cat,c100,5229_cop_dnn_c100_cat_10_n02123159_8199.png
googlenet,5,110,NaN,cat,cat,c100,5230_cop_dnn_c100_cat_10_n02123394_10972.png
googlenet,5,111,NaN,bottle,bottle,c100,5231_cop_dnn_c100_bottle_10_n03937543_6343.png
googlenet,5,112,NaN,bottle,bottle,c100,5232_cop_dnn_c100_bottle_10_n04557648_10275.png
googlenet,5,113,NaN,bottle,bottle,c100,5233_cop_dnn_c100_bottle_10_n04579145_3302.png
googlenet,5,114,NaN,bottle,bottle,c100,5234_cop_dnn_c100_bottle_10_n03937543_4963.png
googlenet,5,115,NaN,knife,bottle,c100,5235_cop_dnn_c100_bottle_10_n04557648_2596.png
googlenet,5,116,NaN,bottle,bottle,c100,5236_cop_dnn_c100_bottle_10_n04557648_3603.png
googlenet,5,117,NaN,bottle,bottle,c100,5237_cop_dnn_c100_bottle_10_n04591713_7108.png
googlenet,5,118,NaN,bottle,bottle,c100,5238_cop_dnn_c100_bottle_10_n02823428_2918.png
googlenet,5,119,NaN,bottle,bottle,c100,5239_cop_dnn_c100_bottle_10_n02823428_10881.png
googlenet,5,120,NaN,bottle,bottle,c100,5240_cop_dnn_c100_bottle_10_n04557648_8444.png
googlenet,5,121,NaN,truck,truck,c100,5241_cop_dnn_c100_truck_10_n04467665_39477.png
googlenet,5,122,NaN,truck,truck,c100,5242_cop_dnn_c100_truck_10_n04467665_3220.png
googlenet,5,123,NaN,truck,truck,c100,5243_cop_dnn_c100_truck_10_n03796401_4211.png
googlenet,5,124,NaN,truck,truck,c100,5244_cop_dnn_c100_truck_10_n03417042_2374.png
googlenet,5,125,NaN,truck,truck,c100,5245_cop_dnn_c100_truck_10_n03796401_599.png
googlenet,5,126,NaN,truck,truck,c100,5246_cop_dnn_c100_truck_10_n03796401_13490.png
googlenet,5,127,NaN,truck,truck,c100,5247_cop_dnn_c100_truck_10_n04467665_31971.png
googlenet,5,128,NaN,truck,truck,c100,5248_cop_dnn_c100_truck_10_n03796401_19114.png
googlenet,5,129,NaN,truck,truck,c100,5249_cop_dnn_c100_truck_10_n04467665_34932.png
googlenet,5,130,NaN,bottle,truck,c100,5250_cop_dnn_c100_truck_10_n04467665_10169.png
googlenet,5,131,NaN,car,car,c100,5251_cop_dnn_c100_car_10_n02814533_85928.png
googlenet,5,132,NaN,car,car,c100,5252_cop_dnn_c100_car_10_n03100240_21737.png
googlenet,5,133,NaN,car,car,c100,5253_cop_dnn_c100_car_10_n02814533_21600.png
googlenet,5,134,NaN,car,car,c100,5254_cop_dnn_c100_car_10_n03100240_4648.png
googlenet,5,135,NaN,car,car,c100,5255_cop_dnn_c100_car_10_n03100240_1390.png
googlenet,5,136,NaN,car,car,c100,5256_cop_dnn_c100_car_10_n04285008_1619.png
googlenet,5,137,NaN,car,car,c100,5257_cop_dnn_c100_car_10_n02814533_47406.png
googlenet,5,138,NaN,car,car,c100,5258_cop_dnn_c100_car_10_n02814533_43179.png
googlenet,5,139,NaN,car,car,c100,5259_cop_dnn_c100_car_10_n04285008_2537.png
googlenet,5,140,NaN,car,car,c100,5260_cop_dnn_c100_car_10_n04285008_8157.png
googlenet,5,141,NaN,bird,bird,c100,5261_cop_dnn_c100_bird_10_n02056570_6185.png
googlenet,5,142,NaN,bird,bird,c100,5262_cop_dnn_c100_bird_10_n02007558_11196.png
googlenet,5,143,NaN,bird,bird,c100,5263_cop_dnn_c100_bird_10_n02009229_12125.png
googlenet,5,144,NaN,bird,bird,c100,5264_cop_dnn_c100_bird_10_n02013706_7395.png
googlenet,5,145,NaN,bird,bird,c100,5265_cop_dnn_c100_bird_10_n01860187_510.png
googlenet,5,146,NaN,clock,bird,c100,5266_cop_dnn_c100_bird_10_n01818515_7621.png
googlenet,5,147,NaN,bird,bird,c100,5267_cop_dnn_c100_bird_10_n01843383_8774.png
googlenet,5,148,NaN,bird,bird,c100,5268_cop_dnn_c100_bird_10_n02017213_2673.png
googlenet,5,149,NaN,bird,bird,c100,5269_cop_dnn_c100_bird_10_n02009912_3242.png
googlenet,5,150,NaN,bird,bird,c100,5270_cop_dnn_c100_bird_10_n02002556_2441.png
googlenet,5,151,NaN,dog,dog,c100,5271_cop_dnn_c100_dog_10_n02100735_4578.png
googlenet,5,152,NaN,dog,dog,c100,5272_cop_dnn_c100_dog_10_n02085936_5479.png
googlenet,5,153,NaN,knife,dog,c100,5273_cop_dnn_c100_dog_10_n02105162_3353.png
googlenet,5,154,NaN,dog,dog,c100,5274_cop_dnn_c100_dog_10_n02096051_5043.png
googlenet,5,155,NaN,dog,dog,c100,5275_cop_dnn_c100_dog_10_n02113624_2816.png
googlenet,5,156,NaN,dog,dog,c100,5276_cop_dnn_c100_dog_10_n02107683_4294.png
googlenet,5,157,NaN,dog,dog,c100,5277_cop_dnn_c100_dog_10_n02087394_8782.png
googlenet,5,158,NaN,dog,dog,c100,5278_cop_dnn_c100_dog_10_n02093991_1669.png
googlenet,5,159,NaN,dog,dog,c100,5279_cop_dnn_c100_dog_10_n02100877_8357.png
googlenet,5,160,NaN,dog,dog,c100,5280_cop_dnn_c100_dog_10_n02090379_2289.png
googlenet,5,161,NaN,chair,knife,c50,5281_cop_dnn_c50_knife_10_n03041632_44212.png
googlenet,5,162,NaN,bottle,knife,c50,5282_cop_dnn_c50_knife_10_n03041632_29801.png
googlenet,5,163,NaN,knife,knife,c50,5283_cop_dnn_c50_knife_10_n03041632_49513.png
googlenet,5,164,NaN,boat,knife,c50,5284_cop_dnn_c50_knife_10_n03041632_45338.png
googlenet,5,165,NaN,knife,knife,c50,5285_cop_dnn_c50_knife_10_n03041632_43975.png
googlenet,5,166,NaN,knife,knife,c50,5286_cop_dnn_c50_knife_10_n03041632_10109.png
googlenet,5,167,NaN,knife,knife,c50,5287_cop_dnn_c50_knife_10_n03041632_2058.png
googlenet,5,168,NaN,knife,knife,c50,5288_cop_dnn_c50_knife_10_n03041632_35116.png
googlenet,5,169,NaN,chair,knife,c50,5289_cop_dnn_c50_knife_10_n03041632_27963.png
googlenet,5,170,NaN,knife,knife,c50,5290_cop_dnn_c50_knife_10_n03041632_14817.png
googlenet,5,171,NaN,keyboard,keyboard,c50,5291_cop_dnn_c50_keyboard_10_n04505470_578.png
googlenet,5,172,NaN,keyboard,keyboard,c50,5292_cop_dnn_c50_keyboard_10_n03085013_22665.png
googlenet,5,173,NaN,keyboard,keyboard,c50,5293_cop_dnn_c50_keyboard_10_n03085013_19376.png
googlenet,5,174,NaN,keyboard,keyboard,c50,5294_cop_dnn_c50_keyboard_10_n03085013_23323.png
googlenet,5,175,NaN,keyboard,keyboard,c50,5295_cop_dnn_c50_keyboard_10_n04505470_209.png
googlenet,5,176,NaN,keyboard,keyboard,c50,5296_cop_dnn_c50_keyboard_10_n03085013_4600.png
googlenet,5,177,NaN,keyboard,keyboard,c50,5297_cop_dnn_c50_keyboard_10_n03085013_22700.png
googlenet,5,178,NaN,keyboard,keyboard,c50,5298_cop_dnn_c50_keyboard_10_n04505470_7686.png
googlenet,5,179,NaN,keyboard,keyboard,c50,5299_cop_dnn_c50_keyboard_10_n04505470_4827.png
googlenet,5,180,NaN,keyboard,keyboard,c50,5300_cop_dnn_c50_keyboard_10_n04505470_1415.png
googlenet,5,181,NaN,elephant,elephant,c50,5301_cop_dnn_c50_elephant_10_n02504458_2135.png
googlenet,5,182,NaN,elephant,elephant,c50,5302_cop_dnn_c50_elephant_10_n02504458_4011.png
googlenet,5,183,NaN,elephant,elephant,c50,5303_cop_dnn_c50_elephant_10_n02504013_9144.png
googlenet,5,184,NaN,elephant,elephant,c50,5304_cop_dnn_c50_elephant_10_n02504458_10123.png
googlenet,5,185,NaN,elephant,elephant,c50,5305_cop_dnn_c50_elephant_10_n02504013_22508.png
googlenet,5,186,NaN,elephant,elephant,c50,5306_cop_dnn_c50_elephant_10_n02504013_2032.png
googlenet,5,187,NaN,elephant,elephant,c50,5307_cop_dnn_c50_elephant_10_n02504458_1085.png
googlenet,5,188,NaN,elephant,elephant,c50,5308_cop_dnn_c50_elephant_10_n02504458_1327.png
googlenet,5,189,NaN,elephant,elephant,c50,5309_cop_dnn_c50_elephant_10_n02504458_6993.png
googlenet,5,190,NaN,elephant,elephant,c50,5310_cop_dnn_c50_elephant_10_n02504458_9237.png
googlenet,5,191,NaN,bicycle,bicycle,c50,5311_cop_dnn_c50_bicycle_10_n03792782_59404.png
googlenet,5,192,NaN,bicycle,bicycle,c50,5312_cop_dnn_c50_bicycle_10_n02835271_262.png
googlenet,5,193,NaN,bird,bicycle,c50,5313_cop_dnn_c50_bicycle_10_n03792782_12752.png
googlenet,5,194,NaN,bicycle,bicycle,c50,5314_cop_dnn_c50_bicycle_10_n02835271_26158.png
googlenet,5,195,NaN,bicycle,bicycle,c50,5315_cop_dnn_c50_bicycle_10_n02835271_9672.png
googlenet,5,196,NaN,bicycle,bicycle,c50,5316_cop_dnn_c50_bicycle_10_n02835271_23237.png
googlenet,5,197,NaN,bicycle,bicycle,c50,5317_cop_dnn_c50_bicycle_10_n02835271_4732.png
googlenet,5,198,NaN,bicycle,bicycle,c50,5318_cop_dnn_c50_bicycle_10_n02835271_6497.png
googlenet,5,199,NaN,bicycle,bicycle,c50,5319_cop_dnn_c50_bicycle_10_n03792782_18320.png
googlenet,5,200,NaN,bicycle,bicycle,c50,5320_cop_dnn_c50_bicycle_10_n03792782_16568.png
googlenet,5,201,NaN,airplane,airplane,c50,5321_cop_dnn_c50_airplane_10_n02690373_4945.png
googlenet,5,202,NaN,boat,airplane,c50,5322_cop_dnn_c50_airplane_10_n02690373_111.png
googlenet,5,203,NaN,airplane,airplane,c50,5323_cop_dnn_c50_airplane_10_n02690373_4964.png
googlenet,5,204,NaN,airplane,airplane,c50,5324_cop_dnn_c50_airplane_10_n02690373_6363.png
googlenet,5,205,NaN,airplane,airplane,c50,5325_cop_dnn_c50_airplane_10_n02690373_13317.png
googlenet,5,206,NaN,airplane,airplane,c50,5326_cop_dnn_c50_airplane_10_n02690373_9425.png
googlenet,5,207,NaN,airplane,airplane,c50,5327_cop_dnn_c50_airplane_10_n02690373_744.png
googlenet,5,208,NaN,airplane,airplane,c50,5328_cop_dnn_c50_airplane_10_n02690373_12044.png
googlenet,5,209,NaN,airplane,airplane,c50,5329_cop_dnn_c50_airplane_10_n02690373_1295.png
googlenet,5,210,NaN,airplane,airplane,c50,5330_cop_dnn_c50_airplane_10_n02690373_1019.png
googlenet,5,211,NaN,clock,clock,c50,5331_cop_dnn_c50_clock_10_n02708093_6591.png
googlenet,5,212,NaN,clock,clock,c50,5332_cop_dnn_c50_clock_10_n03196217_8638.png
googlenet,5,213,NaN,clock,clock,c50,5333_cop_dnn_c50_clock_10_n02708093_1557.png
googlenet,5,214,NaN,clock,clock,c50,5334_cop_dnn_c50_clock_10_n04548280_8649.png
googlenet,5,215,NaN,clock,clock,c50,5335_cop_dnn_c50_clock_10_n02708093_2867.png
googlenet,5,216,NaN,clock,clock,c50,5336_cop_dnn_c50_clock_10_n03196217_3232.png
googlenet,5,217,NaN,clock,clock,c50,5337_cop_dnn_c50_clock_10_n04548280_1438.png
googlenet,5,218,NaN,clock,clock,c50,5338_cop_dnn_c50_clock_10_n02708093_2030.png
googlenet,5,219,NaN,clock,clock,c50,5339_cop_dnn_c50_clock_10_n04548280_9196.png
googlenet,5,220,NaN,clock,clock,c50,5340_cop_dnn_c50_clock_10_n04548280_3531.png
googlenet,5,221,NaN,oven,oven,c50,5341_cop_dnn_c50_oven_10_n04111531_5204.png
googlenet,5,222,NaN,oven,oven,c50,5342_cop_dnn_c50_oven_10_n04111531_11781.png
googlenet,5,223,NaN,bear,oven,c50,5343_cop_dnn_c50_oven_10_n04111531_4959.png
googlenet,5,224,NaN,oven,oven,c50,5344_cop_dnn_c50_oven_10_n04111531_2677.png
googlenet,5,225,NaN,oven,oven,c50,5345_cop_dnn_c50_oven_10_n04111531_4346.png
googlenet,5,226,NaN,bird,oven,c50,5346_cop_dnn_c50_oven_10_n04111531_2943.png
googlenet,5,227,NaN,oven,oven,c50,5347_cop_dnn_c50_oven_10_n04111531_2872.png
googlenet,5,228,NaN,oven,oven,c50,5348_cop_dnn_c50_oven_10_n04111531_22923.png
googlenet,5,229,NaN,oven,oven,c50,5349_cop_dnn_c50_oven_10_n04111531_5967.png
googlenet,5,230,NaN,truck,oven,c50,5350_cop_dnn_c50_oven_10_n04111531_6923.png
googlenet,5,231,NaN,chair,chair,c50,5351_cop_dnn_c50_chair_10_n03376595_3177.png
googlenet,5,232,NaN,chair,chair,c50,5352_cop_dnn_c50_chair_10_n03376595_9268.png
googlenet,5,233,NaN,chair,chair,c50,5353_cop_dnn_c50_chair_10_n02791124_15459.png
googlenet,5,234,NaN,chair,chair,c50,5354_cop_dnn_c50_chair_10_n03376595_3223.png
googlenet,5,235,NaN,chair,chair,c50,5355_cop_dnn_c50_chair_10_n03376595_6683.png
googlenet,5,236,NaN,chair,chair,c50,5356_cop_dnn_c50_chair_10_n04429376_17816.png
googlenet,5,237,NaN,chair,chair,c50,5357_cop_dnn_c50_chair_10_n03376595_7262.png
googlenet,5,238,NaN,chair,chair,c50,5358_cop_dnn_c50_chair_10_n02791124_15457.png
googlenet,5,239,NaN,chair,chair,c50,5359_cop_dnn_c50_chair_10_n02791124_6843.png
googlenet,5,240,NaN,chair,chair,c50,5360_cop_dnn_c50_chair_10_n04429376_4941.png
googlenet,5,241,NaN,bear,bear,c50,5361_cop_dnn_c50_bear_10_n02133161_15299.png
googlenet,5,242,NaN,chair,bear,c50,5362_cop_dnn_c50_bear_10_n02134418_5777.png
googlenet,5,243,NaN,bear,bear,c50,5363_cop_dnn_c50_bear_10_n02134418_4446.png
googlenet,5,244,NaN,bear,bear,c50,5364_cop_dnn_c50_bear_10_n02134418_244.png
googlenet,5,245,NaN,bear,bear,c50,5365_cop_dnn_c50_bear_10_n02133161_1656.png
googlenet,5,246,NaN,bear,bear,c50,5366_cop_dnn_c50_bear_10_n02134084_23164.png
googlenet,5,247,NaN,bear,bear,c50,5367_cop_dnn_c50_bear_10_n02134418_3245.png
googlenet,5,248,NaN,bear,bear,c50,5368_cop_dnn_c50_bear_10_n02134084_10457.png
googlenet,5,249,NaN,bear,bear,c50,5369_cop_dnn_c50_bear_10_n02133161_1032.png
googlenet,5,250,NaN,bear,bear,c50,5370_cop_dnn_c50_bear_10_n02134084_27.png
googlenet,5,251,NaN,boat,boat,c50,5371_cop_dnn_c50_boat_10_n03344393_1115.png
googlenet,5,252,NaN,boat,boat,c50,5372_cop_dnn_c50_boat_10_n03344393_4063.png
googlenet,5,253,NaN,boat,boat,c50,5373_cop_dnn_c50_boat_10_n02951358_34893.png
googlenet,5,254,NaN,car,boat,c50,5374_cop_dnn_c50_boat_10_n02951358_11450.png
googlenet,5,255,NaN,boat,boat,c50,5375_cop_dnn_c50_boat_10_n02951358_34310.png
googlenet,5,256,NaN,boat,boat,c50,5376_cop_dnn_c50_boat_10_n03662601_25492.png
googlenet,5,257,NaN,boat,boat,c50,5377_cop_dnn_c50_boat_10_n04273569_9873.png
googlenet,5,258,NaN,boat,boat,c50,5378_cop_dnn_c50_boat_10_n04612504_2520.png
googlenet,5,259,NaN,boat,boat,c50,5379_cop_dnn_c50_boat_10_n03662601_21426.png
googlenet,5,260,NaN,boat,boat,c50,5380_cop_dnn_c50_boat_10_n02951358_20960.png
googlenet,5,261,NaN,cat,cat,c50,5381_cop_dnn_c50_cat_10_n02124075_6947.png
googlenet,5,262,NaN,cat,cat,c50,5382_cop_dnn_c50_cat_10_n02123394_1845.png
googlenet,5,263,NaN,cat,cat,c50,5383_cop_dnn_c50_cat_10_n02123159_2835.png
googlenet,5,264,NaN,cat,cat,c50,5384_cop_dnn_c50_cat_10_n02123597_9663.png
googlenet,5,265,NaN,cat,cat,c50,5385_cop_dnn_c50_cat_10_n02123597_6693.png
googlenet,5,266,NaN,cat,cat,c50,5386_cop_dnn_c50_cat_10_n02125311_28469.png
googlenet,5,267,NaN,cat,cat,c50,5387_cop_dnn_c50_cat_10_n02123394_4125.png
googlenet,5,268,NaN,cat,cat,c50,5388_cop_dnn_c50_cat_10_n02123394_6846.png
googlenet,5,269,NaN,cat,cat,c50,5389_cop_dnn_c50_cat_10_n02123394_825.png
googlenet,5,270,NaN,cat,cat,c50,5390_cop_dnn_c50_cat_10_n02123394_1379.png
googlenet,5,271,NaN,bottle,bottle,c50,5391_cop_dnn_c50_bottle_10_n02823428_4747.png
googlenet,5,272,NaN,bottle,bottle,c50,5392_cop_dnn_c50_bottle_10_n04560804_29208.png
googlenet,5,273,NaN,bottle,bottle,c50,5393_cop_dnn_c50_bottle_10_n03937543_4678.png
googlenet,5,274,NaN,bottle,bottle,c50,5394_cop_dnn_c50_bottle_10_n03937543_1736.png
googlenet,5,275,NaN,bottle,bottle,c50,5395_cop_dnn_c50_bottle_10_n03983396_2149.png
googlenet,5,276,NaN,bottle,bottle,c50,5396_cop_dnn_c50_bottle_10_n04579145_1853.png
googlenet,5,277,NaN,bottle,bottle,c50,5397_cop_dnn_c50_bottle_10_n03937543_2440.png
googlenet,5,278,NaN,bottle,bottle,c50,5398_cop_dnn_c50_bottle_10_n02823428_2403.png
googlenet,5,279,NaN,bottle,bottle,c50,5399_cop_dnn_c50_bottle_10_n04579145_141.png
googlenet,5,280,NaN,bottle,bottle,c50,5400_cop_dnn_c50_bottle_10_n04579145_6697.png
googlenet,5,281,NaN,truck,truck,c50,5401_cop_dnn_c50_truck_10_n03417042_27850.png
googlenet,5,282,NaN,truck,truck,c50,5402_cop_dnn_c50_truck_10_n03796401_23603.png
googlenet,5,283,NaN,truck,truck,c50,5403_cop_dnn_c50_truck_10_n03417042_1376.png
googlenet,5,284,NaN,truck,truck,c50,5404_cop_dnn_c50_truck_10_n03417042_27602.png
googlenet,5,285,NaN,truck,truck,c50,5405_cop_dnn_c50_truck_10_n04467665_37833.png
googlenet,5,286,NaN,truck,truck,c50,5406_cop_dnn_c50_truck_10_n04467665_69970.png
googlenet,5,287,NaN,truck,truck,c50,5407_cop_dnn_c50_truck_10_n04467665_670.png
googlenet,5,288,NaN,bird,truck,c50,5408_cop_dnn_c50_truck_10_n04467665_23054.png
googlenet,5,289,NaN,truck,truck,c50,5409_cop_dnn_c50_truck_10_n03417042_3482.png
googlenet,5,290,NaN,truck,truck,c50,5410_cop_dnn_c50_truck_10_n04467665_906.png
googlenet,5,291,NaN,truck,car,c50,5411_cop_dnn_c50_car_10_n04285008_13094.png
googlenet,5,292,NaN,car,car,c50,5412_cop_dnn_c50_car_10_n03100240_3936.png
googlenet,5,293,NaN,car,car,c50,5413_cop_dnn_c50_car_10_n04285008_7826.png
googlenet,5,294,NaN,car,car,c50,5414_cop_dnn_c50_car_10_n02814533_2417.png
googlenet,5,295,NaN,car,car,c50,5415_cop_dnn_c50_car_10_n03100240_740.png
googlenet,5,296,NaN,car,car,c50,5416_cop_dnn_c50_car_10_n04285008_8093.png
googlenet,5,297,NaN,car,car,c50,5417_cop_dnn_c50_car_10_n04285008_13629.png
googlenet,5,298,NaN,car,car,c50,5418_cop_dnn_c50_car_10_n02814533_18429.png
googlenet,5,299,NaN,car,car,c50,5419_cop_dnn_c50_car_10_n04285008_5838.png
googlenet,5,300,NaN,car,car,c50,5420_cop_dnn_c50_car_10_n04285008_11451.png
googlenet,5,301,NaN,bird,bird,c50,5421_cop_dnn_c50_bird_10_n01843383_303.png
googlenet,5,302,NaN,bird,bird,c50,5422_cop_dnn_c50_bird_10_n01582220_6783.png
googlenet,5,303,NaN,bird,bird,c50,5423_cop_dnn_c50_bird_10_n02009229_5655.png
googlenet,5,304,NaN,bird,bird,c50,5424_cop_dnn_c50_bird_10_n02002556_3298.png
googlenet,5,305,NaN,cat,bird,c50,5425_cop_dnn_c50_bird_10_n01622779_1712.png
googlenet,5,306,NaN,bird,bird,c50,5426_cop_dnn_c50_bird_10_n01820546_5021.png
googlenet,5,307,NaN,bird,bird,c50,5427_cop_dnn_c50_bird_10_n01797886_20022.png
googlenet,5,308,NaN,bird,bird,c50,5428_cop_dnn_c50_bird_10_n02037110_3779.png
googlenet,5,309,NaN,bird,bird,c50,5429_cop_dnn_c50_bird_10_n01531178_20485.png
googlenet,5,310,NaN,bird,bird,c50,5430_cop_dnn_c50_bird_10_n02002556_153.png
googlenet,5,311,NaN,dog,dog,c50,5431_cop_dnn_c50_dog_10_n02094433_10618.png
googlenet,5,312,NaN,bear,dog,c50,5432_cop_dnn_c50_dog_10_n02107312_1945.png
googlenet,5,313,NaN,dog,dog,c50,5433_cop_dnn_c50_dog_10_n02093428_9016.png
googlenet,5,314,NaN,dog,dog,c50,5434_cop_dnn_c50_dog_10_n02108422_553.png
googlenet,5,315,NaN,dog,dog,c50,5435_cop_dnn_c50_dog_10_n02109525_3294.png
googlenet,5,316,NaN,dog,dog,c50,5436_cop_dnn_c50_dog_10_n02097474_11401.png
googlenet,5,317,NaN,dog,dog,c50,5437_cop_dnn_c50_dog_10_n02102973_6724.png
googlenet,5,318,NaN,dog,dog,c50,5438_cop_dnn_c50_dog_10_n02105162_6323.png
googlenet,5,319,NaN,dog,dog,c50,5439_cop_dnn_c50_dog_10_n02091467_12812.png
googlenet,5,320,NaN,dog,dog,c50,5440_cop_dnn_c50_dog_10_n02101388_9771.png
googlenet,5,321,NaN,knife,knife,c30,5441_cop_dnn_c30_knife_10_n03041632_19620.png
googlenet,5,322,NaN,airplane,knife,c30,5442_cop_dnn_c30_knife_10_n03041632_45569.png
googlenet,5,323,NaN,knife,knife,c30,5443_cop_dnn_c30_knife_10_n03041632_14766.png
googlenet,5,324,NaN,knife,knife,c30,5444_cop_dnn_c30_knife_10_n03041632_25772.png
googlenet,5,325,NaN,knife,knife,c30,5445_cop_dnn_c30_knife_10_n03041632_22480.png
googlenet,5,326,NaN,bottle,knife,c30,5446_cop_dnn_c30_knife_10_n03041632_87339.png
googlenet,5,327,NaN,knife,knife,c30,5447_cop_dnn_c30_knife_10_n03041632_18995.png
googlenet,5,328,NaN,knife,knife,c30,5448_cop_dnn_c30_knife_10_n03041632_26340.png
googlenet,5,329,NaN,knife,knife,c30,5449_cop_dnn_c30_knife_10_n03041632_44269.png
googlenet,5,330,NaN,dog,knife,c30,5450_cop_dnn_c30_knife_10_n03041632_9256.png
googlenet,5,331,NaN,keyboard,keyboard,c30,5451_cop_dnn_c30_keyboard_10_n03085013_28083.png
googlenet,5,332,NaN,keyboard,keyboard,c30,5452_cop_dnn_c30_keyboard_10_n04505470_2620.png
googlenet,5,333,NaN,keyboard,keyboard,c30,5453_cop_dnn_c30_keyboard_10_n04505470_4061.png
googlenet,5,334,NaN,keyboard,keyboard,c30,5454_cop_dnn_c30_keyboard_10_n04505470_4374.png
googlenet,5,335,NaN,keyboard,keyboard,c30,5455_cop_dnn_c30_keyboard_10_n04505470_3961.png
googlenet,5,336,NaN,keyboard,keyboard,c30,5456_cop_dnn_c30_keyboard_10_n03085013_3795.png
googlenet,5,337,NaN,keyboard,keyboard,c30,5457_cop_dnn_c30_keyboard_10_n03085013_23705.png
googlenet,5,338,NaN,keyboard,keyboard,c30,5458_cop_dnn_c30_keyboard_10_n04505470_3089.png
googlenet,5,339,NaN,keyboard,keyboard,c30,5459_cop_dnn_c30_keyboard_10_n03085013_2640.png
googlenet,5,340,NaN,keyboard,keyboard,c30,5460_cop_dnn_c30_keyboard_10_n03085013_21282.png
googlenet,5,341,NaN,elephant,elephant,c30,5461_cop_dnn_c30_elephant_10_n02504013_1784.png
googlenet,5,342,NaN,elephant,elephant,c30,5462_cop_dnn_c30_elephant_10_n02504013_9809.png
googlenet,5,343,NaN,elephant,elephant,c30,5463_cop_dnn_c30_elephant_10_n02504013_3172.png
googlenet,5,344,NaN,dog,elephant,c30,5464_cop_dnn_c30_elephant_10_n02504458_5050.png
googlenet,5,345,NaN,elephant,elephant,c30,5465_cop_dnn_c30_elephant_10_n02504013_3843.png
googlenet,5,346,NaN,elephant,elephant,c30,5466_cop_dnn_c30_elephant_10_n02504013_4514.png
googlenet,5,347,NaN,elephant,elephant,c30,5467_cop_dnn_c30_elephant_10_n02504013_1604.png
googlenet,5,348,NaN,bear,elephant,c30,5468_cop_dnn_c30_elephant_10_n02504458_1348.png
googlenet,5,349,NaN,elephant,elephant,c30,5469_cop_dnn_c30_elephant_10_n02504013_10764.png
googlenet,5,350,NaN,bear,elephant,c30,5470_cop_dnn_c30_elephant_10_n02504458_4633.png
googlenet,5,351,NaN,clock,bicycle,c30,5471_cop_dnn_c30_bicycle_10_n03792782_14199.png
googlenet,5,352,NaN,bicycle,bicycle,c30,5472_cop_dnn_c30_bicycle_10_n03792782_17673.png
googlenet,5,353,NaN,bicycle,bicycle,c30,5473_cop_dnn_c30_bicycle_10_n02835271_2393.png
googlenet,5,354,NaN,bicycle,bicycle,c30,5474_cop_dnn_c30_bicycle_10_n03792782_4249.png
googlenet,5,355,NaN,chair,bicycle,c30,5475_cop_dnn_c30_bicycle_10_n02835271_3767.png
googlenet,5,356,NaN,bicycle,bicycle,c30,5476_cop_dnn_c30_bicycle_10_n02835271_7362.png
googlenet,5,357,NaN,clock,bicycle,c30,5477_cop_dnn_c30_bicycle_10_n03792782_14230.png
googlenet,5,358,NaN,bicycle,bicycle,c30,5478_cop_dnn_c30_bicycle_10_n03792782_5959.png
googlenet,5,359,NaN,bicycle,bicycle,c30,5479_cop_dnn_c30_bicycle_10_n02835271_42981.png
googlenet,5,360,NaN,bicycle,bicycle,c30,5480_cop_dnn_c30_bicycle_10_n02835271_14909.png
googlenet,5,361,NaN,airplane,airplane,c30,5481_cop_dnn_c30_airplane_10_n02690373_13591.png
googlenet,5,362,NaN,airplane,airplane,c30,5482_cop_dnn_c30_airplane_10_n02690373_5475.png
googlenet,5,363,NaN,airplane,airplane,c30,5483_cop_dnn_c30_airplane_10_n02690373_2941.png
googlenet,5,364,NaN,airplane,airplane,c30,5484_cop_dnn_c30_airplane_10_n02690373_2952.png
googlenet,5,365,NaN,airplane,airplane,c30,5485_cop_dnn_c30_airplane_10_n02690373_19131.png
googlenet,5,366,NaN,airplane,airplane,c30,5486_cop_dnn_c30_airplane_10_n02690373_17044.png
googlenet,5,367,NaN,airplane,airplane,c30,5487_cop_dnn_c30_airplane_10_n02690373_5126.png
googlenet,5,368,NaN,airplane,airplane,c30,5488_cop_dnn_c30_airplane_10_n02690373_5496.png
googlenet,5,369,NaN,airplane,airplane,c30,5489_cop_dnn_c30_airplane_10_n02690373_1469.png
googlenet,5,370,NaN,airplane,airplane,c30,5490_cop_dnn_c30_airplane_10_n02690373_10926.png
googlenet,5,371,NaN,clock,clock,c30,5491_cop_dnn_c30_clock_10_n04548280_4743.png
googlenet,5,372,NaN,clock,clock,c30,5492_cop_dnn_c30_clock_10_n02708093_5127.png
googlenet,5,373,NaN,knife,clock,c30,5493_cop_dnn_c30_clock_10_n02708093_1209.png
googlenet,5,374,NaN,clock,clock,c30,5494_cop_dnn_c30_clock_10_n03196217_2632.png
googlenet,5,375,NaN,clock,clock,c30,5495_cop_dnn_c30_clock_10_n02708093_2717.png
googlenet,5,376,NaN,clock,clock,c30,5496_cop_dnn_c30_clock_10_n04548280_494.png
googlenet,5,377,NaN,clock,clock,c30,5497_cop_dnn_c30_clock_10_n04548280_1039.png
googlenet,5,378,NaN,clock,clock,c30,5498_cop_dnn_c30_clock_10_n02708093_842.png
googlenet,5,379,NaN,clock,clock,c30,5499_cop_dnn_c30_clock_10_n03196217_4254.png
googlenet,5,380,NaN,clock,clock,c30,5500_cop_dnn_c30_clock_10_n02708093_7143.png
googlenet,5,381,NaN,bear,oven,c30,5501_cop_dnn_c30_oven_10_n04111531_4809.png
googlenet,5,382,NaN,oven,oven,c30,5502_cop_dnn_c30_oven_10_n04111531_10749.png
googlenet,5,383,NaN,bottle,oven,c30,5503_cop_dnn_c30_oven_10_n04111531_5171.png
googlenet,5,384,NaN,oven,oven,c30,5504_cop_dnn_c30_oven_10_n04111531_21351.png
googlenet,5,385,NaN,dog,oven,c30,5505_cop_dnn_c30_oven_10_n04111531_3181.png
googlenet,5,386,NaN,oven,oven,c30,5506_cop_dnn_c30_oven_10_n04111531_2371.png
googlenet,5,387,NaN,oven,oven,c30,5507_cop_dnn_c30_oven_10_n04111531_6346.png
googlenet,5,388,NaN,bear,oven,c30,5508_cop_dnn_c30_oven_10_n04111531_11634.png
googlenet,5,389,NaN,bottle,oven,c30,5509_cop_dnn_c30_oven_10_n04111531_857.png
googlenet,5,390,NaN,oven,oven,c30,5510_cop_dnn_c30_oven_10_n04111531_21931.png
googlenet,5,391,NaN,chair,chair,c30,5511_cop_dnn_c30_chair_10_n02791124_269.png
googlenet,5,392,NaN,chair,chair,c30,5512_cop_dnn_c30_chair_10_n04099969_22160.png
googlenet,5,393,NaN,chair,chair,c30,5513_cop_dnn_c30_chair_10_n03376595_9667.png
googlenet,5,394,NaN,chair,chair,c30,5514_cop_dnn_c30_chair_10_n04099969_6294.png
googlenet,5,395,NaN,chair,chair,c30,5515_cop_dnn_c30_chair_10_n02791124_6863.png
googlenet,5,396,NaN,chair,chair,c30,5516_cop_dnn_c30_chair_10_n04099969_22555.png
googlenet,5,397,NaN,chair,chair,c30,5517_cop_dnn_c30_chair_10_n04429376_58604.png
googlenet,5,398,NaN,chair,chair,c30,5518_cop_dnn_c30_chair_10_n02791124_4287.png
googlenet,5,399,NaN,truck,chair,c30,5519_cop_dnn_c30_chair_10_n03376595_9650.png
googlenet,5,400,NaN,chair,chair,c30,5520_cop_dnn_c30_chair_10_n04099969_857.png
googlenet,5,401,NaN,cat,bear,c30,5521_cop_dnn_c30_bear_10_n02133161_11351.png
googlenet,5,402,NaN,bear,bear,c30,5522_cop_dnn_c30_bear_10_n02134418_4942.png
googlenet,5,403,NaN,bear,bear,c30,5523_cop_dnn_c30_bear_10_n02132136_24194.png
googlenet,5,404,NaN,bear,bear,c30,5524_cop_dnn_c30_bear_10_n02133161_7157.png
googlenet,5,405,NaN,bear,bear,c30,5525_cop_dnn_c30_bear_10_n02134084_2376.png
googlenet,5,406,NaN,bear,bear,c30,5526_cop_dnn_c30_bear_10_n02133161_3232.png
googlenet,5,407,NaN,bear,bear,c30,5527_cop_dnn_c30_bear_10_n02134084_9722.png
googlenet,5,408,NaN,dog,bear,c30,5528_cop_dnn_c30_bear_10_n02134418_1814.png
googlenet,5,409,NaN,bear,bear,c30,5529_cop_dnn_c30_bear_10_n02134084_2900.png
googlenet,5,410,NaN,bear,bear,c30,5530_cop_dnn_c30_bear_10_n02133161_4305.png
googlenet,5,411,NaN,airplane,boat,c30,5531_cop_dnn_c30_boat_10_n04273569_2886.png
googlenet,5,412,NaN,boat,boat,c30,5532_cop_dnn_c30_boat_10_n03662601_5003.png
googlenet,5,413,NaN,boat,boat,c30,5533_cop_dnn_c30_boat_10_n03344393_10748.png
googlenet,5,414,NaN,boat,boat,c30,5534_cop_dnn_c30_boat_10_n02951358_10313.png
googlenet,5,415,NaN,boat,boat,c30,5535_cop_dnn_c30_boat_10_n04612504_4210.png
googlenet,5,416,NaN,airplane,boat,c30,5536_cop_dnn_c30_boat_10_n04273569_8299.png
googlenet,5,417,NaN,chair,boat,c30,5537_cop_dnn_c30_boat_10_n03344393_5806.png
googlenet,5,418,NaN,boat,boat,c30,5538_cop_dnn_c30_boat_10_n02951358_1878.png
googlenet,5,419,NaN,boat,boat,c30,5539_cop_dnn_c30_boat_10_n03662601_7625.png
googlenet,5,420,NaN,boat,boat,c30,5540_cop_dnn_c30_boat_10_n02951358_5031.png
googlenet,5,421,NaN,cat,cat,c30,5541_cop_dnn_c30_cat_10_n02123597_8247.png
googlenet,5,422,NaN,cat,cat,c30,5542_cop_dnn_c30_cat_10_n02123394_2192.png
googlenet,5,423,NaN,cat,cat,c30,5543_cop_dnn_c30_cat_10_n02123159_2618.png
googlenet,5,424,NaN,cat,cat,c30,5544_cop_dnn_c30_cat_10_n02123597_1260.png
googlenet,5,425,NaN,cat,cat,c30,5545_cop_dnn_c30_cat_10_n02123597_6996.png
googlenet,5,426,NaN,dog,cat,c30,5546_cop_dnn_c30_cat_10_n02123159_2022.png
googlenet,5,427,NaN,cat,cat,c30,5547_cop_dnn_c30_cat_10_n02123159_4144.png
googlenet,5,428,NaN,cat,cat,c30,5548_cop_dnn_c30_cat_10_n02125311_9274.png
googlenet,5,429,NaN,cat,cat,c30,5549_cop_dnn_c30_cat_10_n02125311_21825.png
googlenet,5,430,NaN,cat,cat,c30,5550_cop_dnn_c30_cat_10_n02123597_7055.png
googlenet,5,431,NaN,keyboard,bottle,c30,5551_cop_dnn_c30_bottle_10_n04557648_8194.png
googlenet,5,432,NaN,bottle,bottle,c30,5552_cop_dnn_c30_bottle_10_n02823428_4119.png
googlenet,5,433,NaN,bottle,bottle,c30,5553_cop_dnn_c30_bottle_10_n02823428_7071.png
googlenet,5,434,NaN,bottle,bottle,c30,5554_cop_dnn_c30_bottle_10_n03983396_9347.png
googlenet,5,435,NaN,bottle,bottle,c30,5555_cop_dnn_c30_bottle_10_n04560804_10876.png
googlenet,5,436,NaN,bottle,bottle,c30,5556_cop_dnn_c30_bottle_10_n04557648_5935.png
googlenet,5,437,NaN,bottle,bottle,c30,5557_cop_dnn_c30_bottle_10_n04560804_6886.png
googlenet,5,438,NaN,bottle,bottle,c30,5558_cop_dnn_c30_bottle_10_n04557648_8519.png
googlenet,5,439,NaN,bottle,bottle,c30,5559_cop_dnn_c30_bottle_10_n04591713_7493.png
googlenet,5,440,NaN,bottle,bottle,c30,5560_cop_dnn_c30_bottle_10_n02823428_6418.png
googlenet,5,441,NaN,truck,truck,c30,5561_cop_dnn_c30_truck_10_n03417042_7212.png
googlenet,5,442,NaN,truck,truck,c30,5562_cop_dnn_c30_truck_10_n03796401_1789.png
googlenet,5,443,NaN,truck,truck,c30,5563_cop_dnn_c30_truck_10_n03417042_10517.png
googlenet,5,444,NaN,truck,truck,c30,5564_cop_dnn_c30_truck_10_n04467665_6001.png
googlenet,5,445,NaN,truck,truck,c30,5565_cop_dnn_c30_truck_10_n03796401_17654.png
googlenet,5,446,NaN,truck,truck,c30,5566_cop_dnn_c30_truck_10_n03417042_7328.png
googlenet,5,447,NaN,truck,truck,c30,5567_cop_dnn_c30_truck_10_n03417042_7997.png
googlenet,5,448,NaN,truck,truck,c30,5568_cop_dnn_c30_truck_10_n03417042_13151.png
googlenet,5,449,NaN,airplane,truck,c30,5569_cop_dnn_c30_truck_10_n03796401_12877.png
googlenet,5,450,NaN,chair,truck,c30,5570_cop_dnn_c30_truck_10_n03796401_8206.png
googlenet,5,451,NaN,car,car,c30,5571_cop_dnn_c30_car_10_n04285008_12484.png
googlenet,5,452,NaN,car,car,c30,5572_cop_dnn_c30_car_10_n03100240_4187.png
googlenet,5,453,NaN,truck,car,c30,5573_cop_dnn_c30_car_10_n04285008_5869.png
googlenet,5,454,NaN,truck,car,c30,5574_cop_dnn_c30_car_10_n04285008_3552.png
googlenet,5,455,NaN,car,car,c30,5575_cop_dnn_c30_car_10_n04285008_5077.png
googlenet,5,456,NaN,car,car,c30,5576_cop_dnn_c30_car_10_n04285008_15747.png
googlenet,5,457,NaN,truck,car,c30,5577_cop_dnn_c30_car_10_n02814533_44702.png
googlenet,5,458,NaN,bottle,car,c30,5578_cop_dnn_c30_car_10_n04285008_7015.png
googlenet,5,459,NaN,truck,car,c30,5579_cop_dnn_c30_car_10_n04285008_13418.png
googlenet,5,460,NaN,car,car,c30,5580_cop_dnn_c30_car_10_n04285008_11713.png
googlenet,5,461,NaN,bird,bird,c30,5581_cop_dnn_c30_bird_10_n02028035_20270.png
googlenet,5,462,NaN,bird,bird,c30,5582_cop_dnn_c30_bird_10_n01601694_5346.png
googlenet,5,463,NaN,bird,bird,c30,5583_cop_dnn_c30_bird_10_n02009229_1519.png
googlenet,5,464,NaN,bird,bird,c30,5584_cop_dnn_c30_bird_10_n02025239_770.png
googlenet,5,465,NaN,bird,bird,c30,5585_cop_dnn_c30_bird_10_n01828970_10929.png
googlenet,5,466,NaN,bird,bird,c30,5586_cop_dnn_c30_bird_10_n01833805_5975.png
googlenet,5,467,NaN,bird,bird,c30,5587_cop_dnn_c30_bird_10_n01798484_2618.png
googlenet,5,468,NaN,bird,bird,c30,5588_cop_dnn_c30_bird_10_n01829413_2872.png
googlenet,5,469,NaN,bird,bird,c30,5589_cop_dnn_c30_bird_10_n01530575_33765.png
googlenet,5,470,NaN,bird,bird,c30,5590_cop_dnn_c30_bird_10_n02002724_13110.png
googlenet,5,471,NaN,dog,dog,c30,5591_cop_dnn_c30_dog_10_n02105855_14586.png
googlenet,5,472,NaN,dog,dog,c30,5592_cop_dnn_c30_dog_10_n02102177_1401.png
googlenet,5,473,NaN,dog,dog,c30,5593_cop_dnn_c30_dog_10_n02094114_2400.png
googlenet,5,474,NaN,dog,dog,c30,5594_cop_dnn_c30_dog_10_n02094114_947.png
googlenet,5,475,NaN,dog,dog,c30,5595_cop_dnn_c30_dog_10_n02095570_6995.png
googlenet,5,476,NaN,dog,dog,c30,5596_cop_dnn_c30_dog_10_n02109961_12683.png
googlenet,5,477,NaN,dog,dog,c30,5597_cop_dnn_c30_dog_10_n02113023_6015.png
googlenet,5,478,NaN,dog,dog,c30,5598_cop_dnn_c30_dog_10_n02090622_5267.png
googlenet,5,479,NaN,dog,dog,c30,5599_cop_dnn_c30_dog_10_n02110185_5817.png
googlenet,5,480,NaN,dog,dog,c30,5600_cop_dnn_c30_dog_10_n02101556_250.png
googlenet,5,481,NaN,bottle,knife,c15,5601_cop_dnn_c15_knife_10_n03041632_24114.png
googlenet,5,482,NaN,bottle,knife,c15,5602_cop_dnn_c15_knife_10_n03041632_43436.png
googlenet,5,483,NaN,knife,knife,c15,5603_cop_dnn_c15_knife_10_n03041632_46914.png
googlenet,5,484,NaN,knife,knife,c15,5604_cop_dnn_c15_knife_10_n03041632_56454.png
googlenet,5,485,NaN,knife,knife,c15,5605_cop_dnn_c15_knife_10_n03041632_84869.png
googlenet,5,486,NaN,bottle,knife,c15,5606_cop_dnn_c15_knife_10_n03041632_86554.png
googlenet,5,487,NaN,knife,knife,c15,5607_cop_dnn_c15_knife_10_n03041632_18141.png
googlenet,5,488,NaN,bottle,knife,c15,5608_cop_dnn_c15_knife_10_n03041632_31367.png
googlenet,5,489,NaN,knife,knife,c15,5609_cop_dnn_c15_knife_10_n03041632_20504.png
googlenet,5,490,NaN,bottle,knife,c15,5610_cop_dnn_c15_knife_10_n03041632_18959.png
googlenet,5,491,NaN,keyboard,keyboard,c15,5611_cop_dnn_c15_keyboard_10_n03085013_24408.png
googlenet,5,492,NaN,keyboard,keyboard,c15,5612_cop_dnn_c15_keyboard_10_n03085013_24150.png
googlenet,5,493,NaN,clock,keyboard,c15,5613_cop_dnn_c15_keyboard_10_n03085013_20453.png
googlenet,5,494,NaN,keyboard,keyboard,c15,5614_cop_dnn_c15_keyboard_10_n04505470_1067.png
googlenet,5,495,NaN,keyboard,keyboard,c15,5615_cop_dnn_c15_keyboard_10_n04505470_2868.png
googlenet,5,496,NaN,keyboard,keyboard,c15,5616_cop_dnn_c15_keyboard_10_n03085013_23635.png
googlenet,5,497,NaN,bottle,keyboard,c15,5617_cop_dnn_c15_keyboard_10_n04505470_4617.png
googlenet,5,498,NaN,airplane,keyboard,c15,5618_cop_dnn_c15_keyboard_10_n03085013_30789.png
googlenet,5,499,NaN,keyboard,keyboard,c15,5619_cop_dnn_c15_keyboard_10_n03085013_21243.png
googlenet,5,500,NaN,keyboard,keyboard,c15,5620_cop_dnn_c15_keyboard_10_n03085013_24310.png
googlenet,5,501,NaN,dog,elephant,c15,5621_cop_dnn_c15_elephant_10_n02504013_5251.png
googlenet,5,502,NaN,elephant,elephant,c15,5622_cop_dnn_c15_elephant_10_n02504458_6097.png
googlenet,5,503,NaN,bear,elephant,c15,5623_cop_dnn_c15_elephant_10_n02504458_7085.png
googlenet,5,504,NaN,dog,elephant,c15,5624_cop_dnn_c15_elephant_10_n02504458_8062.png
googlenet,5,505,NaN,bear,elephant,c15,5625_cop_dnn_c15_elephant_10_n02504458_3228.png
googlenet,5,506,NaN,elephant,elephant,c15,5626_cop_dnn_c15_elephant_10_n02504013_10131.png
googlenet,5,507,NaN,elephant,elephant,c15,5627_cop_dnn_c15_elephant_10_n02504013_1865.png
googlenet,5,508,NaN,elephant,elephant,c15,5628_cop_dnn_c15_elephant_10_n02504013_3169.png
googlenet,5,509,NaN,elephant,elephant,c15,5629_cop_dnn_c15_elephant_10_n02504458_6226.png
googlenet,5,510,NaN,dog,elephant,c15,5630_cop_dnn_c15_elephant_10_n02504458_4206.png
googlenet,5,511,NaN,bicycle,bicycle,c15,5631_cop_dnn_c15_bicycle_10_n02835271_1394.png
googlenet,5,512,NaN,bicycle,bicycle,c15,5632_cop_dnn_c15_bicycle_10_n02835271_7350.png
googlenet,5,513,NaN,bicycle,bicycle,c15,5633_cop_dnn_c15_bicycle_10_n02835271_26639.png
googlenet,5,514,NaN,bicycle,bicycle,c15,5634_cop_dnn_c15_bicycle_10_n02835271_11099.png
googlenet,5,515,NaN,bicycle,bicycle,c15,5635_cop_dnn_c15_bicycle_10_n02835271_7265.png
googlenet,5,516,NaN,bicycle,bicycle,c15,5636_cop_dnn_c15_bicycle_10_n02835271_13689.png
googlenet,5,517,NaN,bicycle,bicycle,c15,5637_cop_dnn_c15_bicycle_10_n02835271_24230.png
googlenet,5,518,NaN,bottle,bicycle,c15,5638_cop_dnn_c15_bicycle_10_n03792782_67167.png
googlenet,5,519,NaN,bottle,bicycle,c15,5639_cop_dnn_c15_bicycle_10_n02835271_8995.png
googlenet,5,520,NaN,bicycle,bicycle,c15,5640_cop_dnn_c15_bicycle_10_n02835271_12840.png
googlenet,5,521,NaN,airplane,airplane,c15,5641_cop_dnn_c15_airplane_10_n02690373_629.png
googlenet,5,522,NaN,airplane,airplane,c15,5642_cop_dnn_c15_airplane_10_n02690373_3736.png
googlenet,5,523,NaN,airplane,airplane,c15,5643_cop_dnn_c15_airplane_10_n02690373_6836.png
googlenet,5,524,NaN,airplane,airplane,c15,5644_cop_dnn_c15_airplane_10_n02690373_17262.png
googlenet,5,525,NaN,airplane,airplane,c15,5645_cop_dnn_c15_airplane_10_n02690373_3912.png
googlenet,5,526,NaN,airplane,airplane,c15,5646_cop_dnn_c15_airplane_10_n02690373_15708.png
googlenet,5,527,NaN,airplane,airplane,c15,5647_cop_dnn_c15_airplane_10_n02690373_3150.png
googlenet,5,528,NaN,airplane,airplane,c15,5648_cop_dnn_c15_airplane_10_n02690373_10402.png
googlenet,5,529,NaN,airplane,airplane,c15,5649_cop_dnn_c15_airplane_10_n02690373_4066.png
googlenet,5,530,NaN,airplane,airplane,c15,5650_cop_dnn_c15_airplane_10_n02690373_5328.png
googlenet,5,531,NaN,bottle,clock,c15,5651_cop_dnn_c15_clock_10_n04548280_4747.png
googlenet,5,532,NaN,clock,clock,c15,5652_cop_dnn_c15_clock_10_n04548280_7839.png
googlenet,5,533,NaN,bottle,clock,c15,5653_cop_dnn_c15_clock_10_n02708093_2469.png
googlenet,5,534,NaN,clock,clock,c15,5654_cop_dnn_c15_clock_10_n02708093_7810.png
googlenet,5,535,NaN,clock,clock,c15,5655_cop_dnn_c15_clock_10_n02708093_5551.png
googlenet,5,536,NaN,clock,clock,c15,5656_cop_dnn_c15_clock_10_n04548280_9217.png
googlenet,5,537,NaN,clock,clock,c15,5657_cop_dnn_c15_clock_10_n03196217_6377.png
googlenet,5,538,NaN,clock,clock,c15,5658_cop_dnn_c15_clock_10_n03196217_845.png
googlenet,5,539,NaN,clock,clock,c15,5659_cop_dnn_c15_clock_10_n03196217_8792.png
googlenet,5,540,NaN,clock,clock,c15,5660_cop_dnn_c15_clock_10_n04548280_4323.png
googlenet,5,541,NaN,bottle,oven,c15,5661_cop_dnn_c15_oven_10_n04111531_2241.png
googlenet,5,542,NaN,bottle,oven,c15,5662_cop_dnn_c15_oven_10_n04111531_8238.png
googlenet,5,543,NaN,dog,oven,c15,5663_cop_dnn_c15_oven_10_n04111531_1482.png
googlenet,5,544,NaN,oven,oven,c15,5664_cop_dnn_c15_oven_10_n04111531_10077.png
googlenet,5,545,NaN,bear,oven,c15,5665_cop_dnn_c15_oven_10_n04111531_4662.png
googlenet,5,546,NaN,dog,oven,c15,5666_cop_dnn_c15_oven_10_n04111531_13809.png
googlenet,5,547,NaN,chair,oven,c15,5667_cop_dnn_c15_oven_10_n04111531_1298.png
googlenet,5,548,NaN,bear,oven,c15,5668_cop_dnn_c15_oven_10_n04111531_14876.png
googlenet,5,549,NaN,bottle,oven,c15,5669_cop_dnn_c15_oven_10_n04111531_4332.png
googlenet,5,550,NaN,bear,oven,c15,5670_cop_dnn_c15_oven_10_n04111531_23068.png
googlenet,5,551,NaN,bottle,chair,c15,5671_cop_dnn_c15_chair_10_n03376595_7733.png
googlenet,5,552,NaN,chair,chair,c15,5672_cop_dnn_c15_chair_10_n02791124_1097.png
googlenet,5,553,NaN,dog,chair,c15,5673_cop_dnn_c15_chair_10_n03376595_235.png
googlenet,5,554,NaN,chair,chair,c15,5674_cop_dnn_c15_chair_10_n04429376_12023.png
googlenet,5,555,NaN,chair,chair,c15,5675_cop_dnn_c15_chair_10_n02791124_2949.png
googlenet,5,556,NaN,chair,chair,c15,5676_cop_dnn_c15_chair_10_n03376595_9535.png
googlenet,5,557,NaN,chair,chair,c15,5677_cop_dnn_c15_chair_10_n04099969_9847.png
googlenet,5,558,NaN,chair,chair,c15,5678_cop_dnn_c15_chair_10_n02791124_1052.png
googlenet,5,559,NaN,bottle,chair,c15,5679_cop_dnn_c15_chair_10_n02791124_2614.png
googlenet,5,560,NaN,chair,chair,c15,5680_cop_dnn_c15_chair_10_n02791124_1137.png
googlenet,5,561,NaN,bear,bear,c15,5681_cop_dnn_c15_bear_10_n02133161_8513.png
googlenet,5,562,NaN,bird,bear,c15,5682_cop_dnn_c15_bear_10_n02134084_829.png
googlenet,5,563,NaN,bear,bear,c15,5683_cop_dnn_c15_bear_10_n02134084_27144.png
googlenet,5,564,NaN,bear,bear,c15,5684_cop_dnn_c15_bear_10_n02134084_11993.png
googlenet,5,565,NaN,dog,bear,c15,5685_cop_dnn_c15_bear_10_n02134418_6016.png
googlenet,5,566,NaN,bear,bear,c15,5686_cop_dnn_c15_bear_10_n02134418_3206.png
googlenet,5,567,NaN,bear,bear,c15,5687_cop_dnn_c15_bear_10_n02134418_5435.png
googlenet,5,568,NaN,bear,bear,c15,5688_cop_dnn_c15_bear_10_n02132136_9690.png
googlenet,5,569,NaN,bear,bear,c15,5689_cop_dnn_c15_bear_10_n02132136_28984.png
googlenet,5,570,NaN,bear,bear,c15,5690_cop_dnn_c15_bear_10_n02132136_2489.png
googlenet,5,571,NaN,boat,boat,c15,5691_cop_dnn_c15_boat_10_n03344393_5488.png
googlenet,5,572,NaN,boat,boat,c15,5692_cop_dnn_c15_boat_10_n04612504_5611.png
googlenet,5,573,NaN,bear,boat,c15,5693_cop_dnn_c15_boat_10_n03344393_5920.png
googlenet,5,574,NaN,boat,boat,c15,5694_cop_dnn_c15_boat_10_n03344393_4543.png
googlenet,5,575,NaN,airplane,boat,c15,5695_cop_dnn_c15_boat_10_n02951358_15123.png
googlenet,5,576,NaN,bottle,boat,c15,5696_cop_dnn_c15_boat_10_n02951358_6647.png
googlenet,5,577,NaN,boat,boat,c15,5697_cop_dnn_c15_boat_10_n04273569_12855.png
googlenet,5,578,NaN,boat,boat,c15,5698_cop_dnn_c15_boat_10_n02951358_1136.png
googlenet,5,579,NaN,boat,boat,c15,5699_cop_dnn_c15_boat_10_n03344393_1093.png
googlenet,5,580,NaN,boat,boat,c15,5700_cop_dnn_c15_boat_10_n04273569_870.png
googlenet,5,581,NaN,cat,cat,c15,5701_cop_dnn_c15_cat_10_n02123597_25.png
googlenet,5,582,NaN,bottle,cat,c15,5702_cop_dnn_c15_cat_10_n02125311_10174.png
googlenet,5,583,NaN,cat,cat,c15,5703_cop_dnn_c15_cat_10_n02123159_6481.png
googlenet,5,584,NaN,bear,cat,c15,5704_cop_dnn_c15_cat_10_n02125311_19455.png
googlenet,5,585,NaN,bottle,cat,c15,5705_cop_dnn_c15_cat_10_n02125311_46546.png
googlenet,5,586,NaN,bear,cat,c15,5706_cop_dnn_c15_cat_10_n02125311_15440.png
googlenet,5,587,NaN,dog,cat,c15,5707_cop_dnn_c15_cat_10_n02123597_5283.png
googlenet,5,588,NaN,cat,cat,c15,5708_cop_dnn_c15_cat_10_n02123394_2537.png
googlenet,5,589,NaN,bottle,cat,c15,5709_cop_dnn_c15_cat_10_n02123159_1296.png
googlenet,5,590,NaN,bear,cat,c15,5710_cop_dnn_c15_cat_10_n02125311_19354.png
googlenet,5,591,NaN,bottle,bottle,c15,5711_cop_dnn_c15_bottle_10_n04591713_5928.png
googlenet,5,592,NaN,bottle,bottle,c15,5712_cop_dnn_c15_bottle_10_n02823428_4299.png
googlenet,5,593,NaN,bottle,bottle,c15,5713_cop_dnn_c15_bottle_10_n04591713_14419.png
googlenet,5,594,NaN,bottle,bottle,c15,5714_cop_dnn_c15_bottle_10_n04591713_2194.png
googlenet,5,595,NaN,clock,bottle,c15,5715_cop_dnn_c15_bottle_10_n03983396_14366.png
googlenet,5,596,NaN,chair,bottle,c15,5716_cop_dnn_c15_bottle_10_n02823428_8816.png
googlenet,5,597,NaN,bottle,bottle,c15,5717_cop_dnn_c15_bottle_10_n04591713_7782.png
googlenet,5,598,NaN,bottle,bottle,c15,5718_cop_dnn_c15_bottle_10_n04557648_935.png
googlenet,5,599,NaN,bottle,bottle,c15,5719_cop_dnn_c15_bottle_10_n04557648_7810.png
googlenet,5,600,NaN,bottle,bottle,c15,5720_cop_dnn_c15_bottle_10_n04591713_7120.png
googlenet,5,601,NaN,clock,truck,c15,5721_cop_dnn_c15_truck_10_n04467665_75921.png
googlenet,5,602,NaN,bottle,truck,c15,5722_cop_dnn_c15_truck_10_n03796401_1837.png
googlenet,5,603,NaN,chair,truck,c15,5723_cop_dnn_c15_truck_10_n03417042_12128.png
googlenet,5,604,NaN,truck,truck,c15,5724_cop_dnn_c15_truck_10_n03796401_1791.png
googlenet,5,605,NaN,truck,truck,c15,5725_cop_dnn_c15_truck_10_n04467665_679.png
googlenet,5,606,NaN,bottle,truck,c15,5726_cop_dnn_c15_truck_10_n03417042_6193.png
googlenet,5,607,NaN,bear,truck,c15,5727_cop_dnn_c15_truck_10_n04467665_70939.png
googlenet,5,608,NaN,truck,truck,c15,5728_cop_dnn_c15_truck_10_n04467665_27899.png
googlenet,5,609,NaN,truck,truck,c15,5729_cop_dnn_c15_truck_10_n03417042_12988.png
googlenet,5,610,NaN,truck,truck,c15,5730_cop_dnn_c15_truck_10_n03417042_3298.png
googlenet,5,611,NaN,car,car,c15,5731_cop_dnn_c15_car_10_n02814533_4001.png
googlenet,5,612,NaN,bottle,car,c15,5732_cop_dnn_c15_car_10_n04285008_12682.png
googlenet,5,613,NaN,car,car,c15,5733_cop_dnn_c15_car_10_n02814533_14771.png
googlenet,5,614,NaN,car,car,c15,5734_cop_dnn_c15_car_10_n04285008_4498.png
googlenet,5,615,NaN,car,car,c15,5735_cop_dnn_c15_car_10_n02814533_35760.png
googlenet,5,616,NaN,bottle,car,c15,5736_cop_dnn_c15_car_10_n04285008_10057.png
googlenet,5,617,NaN,bottle,car,c15,5737_cop_dnn_c15_car_10_n03100240_788.png
googlenet,5,618,NaN,truck,car,c15,5738_cop_dnn_c15_car_10_n02814533_20292.png
googlenet,5,619,NaN,bottle,car,c15,5739_cop_dnn_c15_car_10_n04285008_7231.png
googlenet,5,620,NaN,bottle,car,c15,5740_cop_dnn_c15_car_10_n04285008_6027.png
googlenet,5,621,NaN,bird,bird,c15,5741_cop_dnn_c15_bird_10_n01532829_334.png
googlenet,5,622,NaN,airplane,bird,c15,5742_cop_dnn_c15_bird_10_n02009229_19773.png
googlenet,5,623,NaN,bird,bird,c15,5743_cop_dnn_c15_bird_10_n01530575_1907.png
googlenet,5,624,NaN,bird,bird,c15,5744_cop_dnn_c15_bird_10_n01860187_29141.png
googlenet,5,625,NaN,clock,bird,c15,5745_cop_dnn_c15_bird_10_n01616318_2521.png
googlenet,5,626,NaN,bird,bird,c15,5746_cop_dnn_c15_bird_10_n02018795_8036.png
googlenet,5,627,NaN,bird,bird,c15,5747_cop_dnn_c15_bird_10_n02018795_5888.png
googlenet,5,628,NaN,bird,bird,c15,5748_cop_dnn_c15_bird_10_n01601694_5305.png
googlenet,5,629,NaN,bird,bird,c15,5749_cop_dnn_c15_bird_10_n02009229_4547.png
googlenet,5,630,NaN,bear,bird,c15,5750_cop_dnn_c15_bird_10_n02025239_16987.png
googlenet,5,631,NaN,bear,dog,c15,5751_cop_dnn_c15_dog_10_n02105056_1018.png
googlenet,5,632,NaN,dog,dog,c15,5752_cop_dnn_c15_dog_10_n02113712_212.png
googlenet,5,633,NaN,dog,dog,c15,5753_cop_dnn_c15_dog_10_n02090721_6372.png
googlenet,5,634,NaN,dog,dog,c15,5754_cop_dnn_c15_dog_10_n02110958_5429.png
googlenet,5,635,NaN,bottle,dog,c15,5755_cop_dnn_c15_dog_10_n02093428_8078.png
googlenet,5,636,NaN,dog,dog,c15,5756_cop_dnn_c15_dog_10_n02090622_4829.png
googlenet,5,637,NaN,dog,dog,c15,5757_cop_dnn_c15_dog_10_n02102040_682.png
googlenet,5,638,NaN,dog,dog,c15,5758_cop_dnn_c15_dog_10_n02104365_4233.png
googlenet,5,639,NaN,dog,dog,c15,5759_cop_dnn_c15_dog_10_n02088364_6046.png
googlenet,5,640,NaN,dog,dog,c15,5760_cop_dnn_c15_dog_10_n02099849_3103.png
googlenet,5,641,NaN,bear,knife,c10,5761_cop_dnn_c10_knife_10_n03041632_40530.png
googlenet,5,642,NaN,bottle,knife,c10,5762_cop_dnn_c10_knife_10_n03041632_32208.png
googlenet,5,643,NaN,bottle,knife,c10,5763_cop_dnn_c10_knife_10_n03041632_24376.png
googlenet,5,644,NaN,chair,knife,c10,5764_cop_dnn_c10_knife_10_n03041632_34769.png
googlenet,5,645,NaN,knife,knife,c10,5765_cop_dnn_c10_knife_10_n03041632_39952.png
googlenet,5,646,NaN,dog,knife,c10,5766_cop_dnn_c10_knife_10_n03041632_43506.png
googlenet,5,647,NaN,knife,knife,c10,5767_cop_dnn_c10_knife_10_n03041632_131.png
googlenet,5,648,NaN,knife,knife,c10,5768_cop_dnn_c10_knife_10_n03041632_29684.png
googlenet,5,649,NaN,bottle,knife,c10,5769_cop_dnn_c10_knife_10_n03041632_13846.png
googlenet,5,650,NaN,bottle,knife,c10,5770_cop_dnn_c10_knife_10_n03041632_92637.png
googlenet,5,651,NaN,keyboard,keyboard,c10,5771_cop_dnn_c10_keyboard_10_n03085013_23465.png
googlenet,5,652,NaN,keyboard,keyboard,c10,5772_cop_dnn_c10_keyboard_10_n03085013_30335.png
googlenet,5,653,NaN,keyboard,keyboard,c10,5773_cop_dnn_c10_keyboard_10_n03085013_2189.png
googlenet,5,654,NaN,keyboard,keyboard,c10,5774_cop_dnn_c10_keyboard_10_n04505470_756.png
googlenet,5,655,NaN,keyboard,keyboard,c10,5775_cop_dnn_c10_keyboard_10_n04505470_2907.png
googlenet,5,656,NaN,bottle,keyboard,c10,5776_cop_dnn_c10_keyboard_10_n04505470_9331.png
googlenet,5,657,NaN,keyboard,keyboard,c10,5777_cop_dnn_c10_keyboard_10_n03085013_25864.png
googlenet,5,658,NaN,keyboard,keyboard,c10,5778_cop_dnn_c10_keyboard_10_n04505470_6682.png
googlenet,5,659,NaN,keyboard,keyboard,c10,5779_cop_dnn_c10_keyboard_10_n04505470_1988.png
googlenet,5,660,NaN,keyboard,keyboard,c10,5780_cop_dnn_c10_keyboard_10_n03085013_2073.png
googlenet,5,661,NaN,bear,elephant,c10,5781_cop_dnn_c10_elephant_10_n02504458_10050.png
googlenet,5,662,NaN,bear,elephant,c10,5782_cop_dnn_c10_elephant_10_n02504458_12352.png
googlenet,5,663,NaN,dog,elephant,c10,5783_cop_dnn_c10_elephant_10_n02504458_6301.png
googlenet,5,664,NaN,bear,elephant,c10,5784_cop_dnn_c10_elephant_10_n02504013_701.png
googlenet,5,665,NaN,bear,elephant,c10,5785_cop_dnn_c10_elephant_10_n02504458_4838.png
googlenet,5,666,NaN,dog,elephant,c10,5786_cop_dnn_c10_elephant_10_n02504013_9476.png
googlenet,5,667,NaN,bear,elephant,c10,5787_cop_dnn_c10_elephant_10_n02504013_5934.png
googlenet,5,668,NaN,bear,elephant,c10,5788_cop_dnn_c10_elephant_10_n02504458_1864.png
googlenet,5,669,NaN,elephant,elephant,c10,5789_cop_dnn_c10_elephant_10_n02504458_7631.png
googlenet,5,670,NaN,bear,elephant,c10,5790_cop_dnn_c10_elephant_10_n02504458_6484.png
googlenet,5,671,NaN,bottle,bicycle,c10,5791_cop_dnn_c10_bicycle_10_n02835271_9842.png
googlenet,5,672,NaN,chair,bicycle,c10,5792_cop_dnn_c10_bicycle_10_n02835271_18537.png
googlenet,5,673,NaN,bottle,bicycle,c10,5793_cop_dnn_c10_bicycle_10_n03792782_8087.png
googlenet,5,674,NaN,dog,bicycle,c10,5794_cop_dnn_c10_bicycle_10_n03792782_15614.png
googlenet,5,675,NaN,bottle,bicycle,c10,5795_cop_dnn_c10_bicycle_10_n03792782_626.png
googlenet,5,676,NaN,bottle,bicycle,c10,5796_cop_dnn_c10_bicycle_10_n03792782_15808.png
googlenet,5,677,NaN,bird,bicycle,c10,5797_cop_dnn_c10_bicycle_10_n02835271_10596.png
googlenet,5,678,NaN,bottle,bicycle,c10,5798_cop_dnn_c10_bicycle_10_n03792782_6794.png
googlenet,5,679,NaN,bottle,bicycle,c10,5799_cop_dnn_c10_bicycle_10_n03792782_13769.png
googlenet,5,680,NaN,bottle,bicycle,c10,5800_cop_dnn_c10_bicycle_10_n02835271_3004.png
googlenet,5,681,NaN,airplane,airplane,c10,5801_cop_dnn_c10_airplane_10_n02690373_10210.png
googlenet,5,682,NaN,clock,airplane,c10,5802_cop_dnn_c10_airplane_10_n02690373_2648.png
googlenet,5,683,NaN,airplane,airplane,c10,5803_cop_dnn_c10_airplane_10_n02690373_2070.png
googlenet,5,684,NaN,bottle,airplane,c10,5804_cop_dnn_c10_airplane_10_n02690373_1773.png
googlenet,5,685,NaN,airplane,airplane,c10,5805_cop_dnn_c10_airplane_10_n02690373_13613.png
googlenet,5,686,NaN,airplane,airplane,c10,5806_cop_dnn_c10_airplane_10_n02690373_4486.png
googlenet,5,687,NaN,airplane,airplane,c10,5807_cop_dnn_c10_airplane_10_n02690373_7748.png
googlenet,5,688,NaN,bottle,airplane,c10,5808_cop_dnn_c10_airplane_10_n02690373_2268.png
googlenet,5,689,NaN,airplane,airplane,c10,5809_cop_dnn_c10_airplane_10_n02690373_11799.png
googlenet,5,690,NaN,bear,airplane,c10,5810_cop_dnn_c10_airplane_10_n02690373_1644.png
googlenet,5,691,NaN,clock,clock,c10,5811_cop_dnn_c10_clock_10_n03196217_11980.png
googlenet,5,692,NaN,clock,clock,c10,5812_cop_dnn_c10_clock_10_n04548280_983.png
googlenet,5,693,NaN,clock,clock,c10,5813_cop_dnn_c10_clock_10_n04548280_5556.png
googlenet,5,694,NaN,bottle,clock,c10,5814_cop_dnn_c10_clock_10_n04548280_4951.png
googlenet,5,695,NaN,clock,clock,c10,5815_cop_dnn_c10_clock_10_n02708093_6560.png
googlenet,5,696,NaN,bottle,clock,c10,5816_cop_dnn_c10_clock_10_n04548280_77.png
googlenet,5,697,NaN,clock,clock,c10,5817_cop_dnn_c10_clock_10_n02708093_8355.png
googlenet,5,698,NaN,clock,clock,c10,5818_cop_dnn_c10_clock_10_n03196217_7875.png
googlenet,5,699,NaN,clock,clock,c10,5819_cop_dnn_c10_clock_10_n03196217_2511.png
googlenet,5,700,NaN,clock,clock,c10,5820_cop_dnn_c10_clock_10_n04548280_2091.png
googlenet,5,701,NaN,cat,oven,c10,5821_cop_dnn_c10_oven_10_n04111531_14690.png
googlenet,5,702,NaN,bottle,oven,c10,5822_cop_dnn_c10_oven_10_n04111531_82.png
googlenet,5,703,NaN,bottle,oven,c10,5823_cop_dnn_c10_oven_10_n04111531_2051.png
googlenet,5,704,NaN,dog,oven,c10,5824_cop_dnn_c10_oven_10_n04111531_14435.png
googlenet,5,705,NaN,bear,oven,c10,5825_cop_dnn_c10_oven_10_n04111531_12589.png
googlenet,5,706,NaN,bottle,oven,c10,5826_cop_dnn_c10_oven_10_n04111531_9939.png
googlenet,5,707,NaN,bottle,oven,c10,5827_cop_dnn_c10_oven_10_n04111531_5304.png
googlenet,5,708,NaN,bottle,oven,c10,5828_cop_dnn_c10_oven_10_n04111531_4988.png
googlenet,5,709,NaN,bottle,oven,c10,5829_cop_dnn_c10_oven_10_n04111531_2630.png
googlenet,5,710,NaN,oven,oven,c10,5830_cop_dnn_c10_oven_10_n04111531_11505.png
googlenet,5,711,NaN,chair,chair,c10,5831_cop_dnn_c10_chair_10_n04099969_14475.png
googlenet,5,712,NaN,chair,chair,c10,5832_cop_dnn_c10_chair_10_n04099969_451.png
googlenet,5,713,NaN,chair,chair,c10,5833_cop_dnn_c10_chair_10_n02791124_1870.png
googlenet,5,714,NaN,bottle,chair,c10,5834_cop_dnn_c10_chair_10_n04099969_9019.png
googlenet,5,715,NaN,chair,chair,c10,5835_cop_dnn_c10_chair_10_n03376595_19214.png
googlenet,5,716,NaN,chair,chair,c10,5836_cop_dnn_c10_chair_10_n03376595_16121.png
googlenet,5,717,NaN,bottle,chair,c10,5837_cop_dnn_c10_chair_10_n04429376_8774.png
googlenet,5,718,NaN,bottle,chair,c10,5838_cop_dnn_c10_chair_10_n04099969_26693.png
googlenet,5,719,NaN,bottle,chair,c10,5839_cop_dnn_c10_chair_10_n04099969_7054.png
googlenet,5,720,NaN,chair,chair,c10,5840_cop_dnn_c10_chair_10_n03376595_455.png
googlenet,5,721,NaN,bottle,bear,c10,5841_cop_dnn_c10_bear_10_n02132136_1822.png
googlenet,5,722,NaN,bear,bear,c10,5842_cop_dnn_c10_bear_10_n02132136_22786.png
googlenet,5,723,NaN,dog,bear,c10,5843_cop_dnn_c10_bear_10_n02133161_6316.png
googlenet,5,724,NaN,bear,bear,c10,5844_cop_dnn_c10_bear_10_n02133161_13105.png
googlenet,5,725,NaN,bear,bear,c10,5845_cop_dnn_c10_bear_10_n02132136_1953.png
googlenet,5,726,NaN,bear,bear,c10,5846_cop_dnn_c10_bear_10_n02133161_10647.png
googlenet,5,727,NaN,bear,bear,c10,5847_cop_dnn_c10_bear_10_n02132136_4888.png
googlenet,5,728,NaN,bear,bear,c10,5848_cop_dnn_c10_bear_10_n02133161_777.png
googlenet,5,729,NaN,bear,bear,c10,5849_cop_dnn_c10_bear_10_n02132136_8561.png
googlenet,5,730,NaN,bear,bear,c10,5850_cop_dnn_c10_bear_10_n02133161_765.png
googlenet,5,731,NaN,boat,boat,c10,5851_cop_dnn_c10_boat_10_n04612504_20125.png
googlenet,5,732,NaN,bottle,boat,c10,5852_cop_dnn_c10_boat_10_n03344393_8762.png
googlenet,5,733,NaN,boat,boat,c10,5853_cop_dnn_c10_boat_10_n04273569_17801.png
googlenet,5,734,NaN,clock,boat,c10,5854_cop_dnn_c10_boat_10_n03662601_13961.png
googlenet,5,735,NaN,bottle,boat,c10,5855_cop_dnn_c10_boat_10_n02951358_29721.png
googlenet,5,736,NaN,airplane,boat,c10,5856_cop_dnn_c10_boat_10_n03344393_6217.png
googlenet,5,737,NaN,bottle,boat,c10,5857_cop_dnn_c10_boat_10_n04273569_17964.png
googlenet,5,738,NaN,clock,boat,c10,5858_cop_dnn_c10_boat_10_n03344393_6758.png
googlenet,5,739,NaN,boat,boat,c10,5859_cop_dnn_c10_boat_10_n04612504_2129.png
googlenet,5,740,NaN,airplane,boat,c10,5860_cop_dnn_c10_boat_10_n04612504_27749.png
googlenet,5,741,NaN,bottle,cat,c10,5861_cop_dnn_c10_cat_10_n02123394_959.png
googlenet,5,742,NaN,bear,cat,c10,5862_cop_dnn_c10_cat_10_n02125311_13062.png
googlenet,5,743,NaN,cat,cat,c10,5863_cop_dnn_c10_cat_10_n02123597_3704.png
googlenet,5,744,NaN,bird,cat,c10,5864_cop_dnn_c10_cat_10_n02123394_1721.png
googlenet,5,745,NaN,cat,cat,c10,5865_cop_dnn_c10_cat_10_n02123159_2532.png
googlenet,5,746,NaN,dog,cat,c10,5866_cop_dnn_c10_cat_10_n02123045_15581.png
googlenet,5,747,NaN,dog,cat,c10,5867_cop_dnn_c10_cat_10_n02123597_9352.png
googlenet,5,748,NaN,cat,cat,c10,5868_cop_dnn_c10_cat_10_n02123597_10896.png
googlenet,5,749,NaN,bear,cat,c10,5869_cop_dnn_c10_cat_10_n02123597_4756.png
googlenet,5,750,NaN,dog,cat,c10,5870_cop_dnn_c10_cat_10_n02125311_57826.png
googlenet,5,751,NaN,bottle,bottle,c10,5871_cop_dnn_c10_bottle_10_n04560804_2288.png
googlenet,5,752,NaN,clock,bottle,c10,5872_cop_dnn_c10_bottle_10_n04557648_24236.png
googlenet,5,753,NaN,bottle,bottle,c10,5873_cop_dnn_c10_bottle_10_n04591713_3770.png
googlenet,5,754,NaN,bottle,bottle,c10,5874_cop_dnn_c10_bottle_10_n04557648_5502.png
googlenet,5,755,NaN,bottle,bottle,c10,5875_cop_dnn_c10_bottle_10_n02823428_1733.png
googlenet,5,756,NaN,bottle,bottle,c10,5876_cop_dnn_c10_bottle_10_n04560804_13348.png
googlenet,5,757,NaN,keyboard,bottle,c10,5877_cop_dnn_c10_bottle_10_n03983396_4313.png
googlenet,5,758,NaN,bottle,bottle,c10,5878_cop_dnn_c10_bottle_10_n03937543_8262.png
googlenet,5,759,NaN,bottle,bottle,c10,5879_cop_dnn_c10_bottle_10_n04557648_3334.png
googlenet,5,760,NaN,bottle,bottle,c10,5880_cop_dnn_c10_bottle_10_n04557648_1247.png
googlenet,5,761,NaN,truck,truck,c10,5881_cop_dnn_c10_truck_10_n04467665_4782.png
googlenet,5,762,NaN,truck,truck,c10,5882_cop_dnn_c10_truck_10_n03417042_16149.png
googlenet,5,763,NaN,truck,truck,c10,5883_cop_dnn_c10_truck_10_n04467665_4639.png
googlenet,5,764,NaN,truck,truck,c10,5884_cop_dnn_c10_truck_10_n04467665_29260.png
googlenet,5,765,NaN,bottle,truck,c10,5885_cop_dnn_c10_truck_10_n03796401_17201.png
googlenet,5,766,NaN,bottle,truck,c10,5886_cop_dnn_c10_truck_10_n03417042_1344.png
googlenet,5,767,NaN,bottle,truck,c10,5887_cop_dnn_c10_truck_10_n03417042_1348.png
googlenet,5,768,NaN,clock,truck,c10,5888_cop_dnn_c10_truck_10_n03796401_26535.png
googlenet,5,769,NaN,truck,truck,c10,5889_cop_dnn_c10_truck_10_n03796401_2447.png
googlenet,5,770,NaN,chair,truck,c10,5890_cop_dnn_c10_truck_10_n03796401_11407.png
googlenet,5,771,NaN,car,car,c10,5891_cop_dnn_c10_car_10_n04285008_14128.png
googlenet,5,772,NaN,car,car,c10,5892_cop_dnn_c10_car_10_n02814533_16978.png
googlenet,5,773,NaN,car,car,c10,5893_cop_dnn_c10_car_10_n02814533_31275.png
googlenet,5,774,NaN,bottle,car,c10,5894_cop_dnn_c10_car_10_n04285008_8951.png
googlenet,5,775,NaN,bear,car,c10,5895_cop_dnn_c10_car_10_n02814533_19107.png
googlenet,5,776,NaN,car,car,c10,5896_cop_dnn_c10_car_10_n02814533_10135.png
googlenet,5,777,NaN,bottle,car,c10,5897_cop_dnn_c10_car_10_n03100240_14753.png
googlenet,5,778,NaN,car,car,c10,5898_cop_dnn_c10_car_10_n04285008_11957.png
googlenet,5,779,NaN,car,car,c10,5899_cop_dnn_c10_car_10_n02814533_71930.png
googlenet,5,780,NaN,bear,car,c10,5900_cop_dnn_c10_car_10_n02814533_34289.png
googlenet,5,781,NaN,cat,bird,c10,5901_cop_dnn_c10_bird_10_n01622779_18795.png
googlenet,5,782,NaN,bear,bird,c10,5902_cop_dnn_c10_bird_10_n01818515_7857.png
googlenet,5,783,NaN,bird,bird,c10,5903_cop_dnn_c10_bird_10_n02002556_11720.png
googlenet,5,784,NaN,bird,bird,c10,5904_cop_dnn_c10_bird_10_n02007558_19107.png
googlenet,5,785,NaN,bird,bird,c10,5905_cop_dnn_c10_bird_10_n02009912_358.png
googlenet,5,786,NaN,bear,bird,c10,5906_cop_dnn_c10_bird_10_n02017213_6424.png
googlenet,5,787,NaN,bird,bird,c10,5907_cop_dnn_c10_bird_10_n01828970_10774.png
googlenet,5,788,NaN,dog,bird,c10,5908_cop_dnn_c10_bird_10_n01855672_8257.png
googlenet,5,789,NaN,airplane,bird,c10,5909_cop_dnn_c10_bird_10_n01537544_9132.png
googlenet,5,790,NaN,bird,bird,c10,5910_cop_dnn_c10_bird_10_n02027492_9460.png
googlenet,5,791,NaN,bottle,dog,c10,5911_cop_dnn_c10_dog_10_n02108422_8597.png
googlenet,5,792,NaN,dog,dog,c10,5912_cop_dnn_c10_dog_10_n02094114_4522.png
googlenet,5,793,NaN,bottle,dog,c10,5913_cop_dnn_c10_dog_10_n02109525_64859.png
googlenet,5,794,NaN,dog,dog,c10,5914_cop_dnn_c10_dog_10_n02105505_1911.png
googlenet,5,795,NaN,dog,dog,c10,5915_cop_dnn_c10_dog_10_n02111129_6412.png
googlenet,5,796,NaN,dog,dog,c10,5916_cop_dnn_c10_dog_10_n02087046_2037.png
googlenet,5,797,NaN,dog,dog,c10,5917_cop_dnn_c10_dog_10_n02086079_22061.png
googlenet,5,798,NaN,dog,dog,c10,5918_cop_dnn_c10_dog_10_n02105162_4838.png
googlenet,5,799,NaN,dog,dog,c10,5919_cop_dnn_c10_dog_10_n02091467_13224.png
googlenet,5,800,NaN,bear,dog,c10,5920_cop_dnn_c10_dog_10_n02095570_355.png
googlenet,5,801,NaN,knife,knife,c05,5921_cop_dnn_c05_knife_10_n03041632_42156.png
googlenet,5,802,NaN,knife,knife,c05,5922_cop_dnn_c05_knife_10_n03041632_50034.png
googlenet,5,803,NaN,knife,knife,c05,5923_cop_dnn_c05_knife_10_n03041632_45326.png
googlenet,5,804,NaN,knife,knife,c05,5924_cop_dnn_c05_knife_10_n03041632_29337.png
googlenet,5,805,NaN,knife,knife,c05,5925_cop_dnn_c05_knife_10_n03041632_11327.png
googlenet,5,806,NaN,bear,knife,c05,5926_cop_dnn_c05_knife_10_n03041632_37618.png
googlenet,5,807,NaN,airplane,knife,c05,5927_cop_dnn_c05_knife_10_n03041632_32896.png
googlenet,5,808,NaN,airplane,knife,c05,5928_cop_dnn_c05_knife_10_n03041632_30602.png
googlenet,5,809,NaN,airplane,knife,c05,5929_cop_dnn_c05_knife_10_n03041632_2153.png
googlenet,5,810,NaN,bottle,knife,c05,5930_cop_dnn_c05_knife_10_n03041632_15099.png
googlenet,5,811,NaN,keyboard,keyboard,c05,5931_cop_dnn_c05_keyboard_10_n03085013_10463.png
googlenet,5,812,NaN,bottle,keyboard,c05,5932_cop_dnn_c05_keyboard_10_n04505470_2616.png
googlenet,5,813,NaN,keyboard,keyboard,c05,5933_cop_dnn_c05_keyboard_10_n04505470_250.png
googlenet,5,814,NaN,bottle,keyboard,c05,5934_cop_dnn_c05_keyboard_10_n04505470_4895.png
googlenet,5,815,NaN,airplane,keyboard,c05,5935_cop_dnn_c05_keyboard_10_n03085013_7091.png
googlenet,5,816,NaN,bottle,keyboard,c05,5936_cop_dnn_c05_keyboard_10_n04505470_5047.png
googlenet,5,817,NaN,bottle,keyboard,c05,5937_cop_dnn_c05_keyboard_10_n04505470_4575.png
googlenet,5,818,NaN,bottle,keyboard,c05,5938_cop_dnn_c05_keyboard_10_n03085013_3078.png
googlenet,5,819,NaN,keyboard,keyboard,c05,5939_cop_dnn_c05_keyboard_10_n03085013_6038.png
googlenet,5,820,NaN,bottle,keyboard,c05,5940_cop_dnn_c05_keyboard_10_n03085013_92.png
googlenet,5,821,NaN,bear,elephant,c05,5941_cop_dnn_c05_elephant_10_n02504013_6187.png
googlenet,5,822,NaN,dog,elephant,c05,5942_cop_dnn_c05_elephant_10_n02504013_2830.png
googlenet,5,823,NaN,airplane,elephant,c05,5943_cop_dnn_c05_elephant_10_n02504458_5671.png
googlenet,5,824,NaN,bear,elephant,c05,5944_cop_dnn_c05_elephant_10_n02504458_5303.png
googlenet,5,825,NaN,bear,elephant,c05,5945_cop_dnn_c05_elephant_10_n02504458_2471.png
googlenet,5,826,NaN,elephant,elephant,c05,5946_cop_dnn_c05_elephant_10_n02504013_15805.png
googlenet,5,827,NaN,bear,elephant,c05,5947_cop_dnn_c05_elephant_10_n02504013_3800.png
googlenet,5,828,NaN,bottle,elephant,c05,5948_cop_dnn_c05_elephant_10_n02504013_5919.png
googlenet,5,829,NaN,bear,elephant,c05,5949_cop_dnn_c05_elephant_10_n02504013_10543.png
googlenet,5,830,NaN,boat,elephant,c05,5950_cop_dnn_c05_elephant_10_n02504458_3381.png
googlenet,5,831,NaN,clock,bicycle,c05,5951_cop_dnn_c05_bicycle_10_n03792782_4295.png
googlenet,5,832,NaN,clock,bicycle,c05,5952_cop_dnn_c05_bicycle_10_n02835271_2753.png
googlenet,5,833,NaN,bottle,bicycle,c05,5953_cop_dnn_c05_bicycle_10_n02835271_7188.png
googlenet,5,834,NaN,bear,bicycle,c05,5954_cop_dnn_c05_bicycle_10_n02835271_25033.png
googlenet,5,835,NaN,bottle,bicycle,c05,5955_cop_dnn_c05_bicycle_10_n03792782_687.png
googlenet,5,836,NaN,bottle,bicycle,c05,5956_cop_dnn_c05_bicycle_10_n02835271_1261.png
googlenet,5,837,NaN,bottle,bicycle,c05,5957_cop_dnn_c05_bicycle_10_n02835271_1222.png
googlenet,5,838,NaN,bottle,bicycle,c05,5958_cop_dnn_c05_bicycle_10_n02835271_22448.png
googlenet,5,839,NaN,bottle,bicycle,c05,5959_cop_dnn_c05_bicycle_10_n02835271_19394.png
googlenet,5,840,NaN,bottle,bicycle,c05,5960_cop_dnn_c05_bicycle_10_n03792782_2883.png
googlenet,5,841,NaN,airplane,airplane,c05,5961_cop_dnn_c05_airplane_10_n02690373_7055.png
googlenet,5,842,NaN,airplane,airplane,c05,5962_cop_dnn_c05_airplane_10_n02690373_7473.png
googlenet,5,843,NaN,airplane,airplane,c05,5963_cop_dnn_c05_airplane_10_n02690373_599.png
googlenet,5,844,NaN,airplane,airplane,c05,5964_cop_dnn_c05_airplane_10_n02690373_3021.png
googlenet,5,845,NaN,airplane,airplane,c05,5965_cop_dnn_c05_airplane_10_n02690373_5415.png
googlenet,5,846,NaN,bottle,airplane,c05,5966_cop_dnn_c05_airplane_10_n02690373_10449.png
googlenet,5,847,NaN,bird,airplane,c05,5967_cop_dnn_c05_airplane_10_n02690373_2908.png
googlenet,5,848,NaN,airplane,airplane,c05,5968_cop_dnn_c05_airplane_10_n02690373_6803.png
googlenet,5,849,NaN,airplane,airplane,c05,5969_cop_dnn_c05_airplane_10_n02690373_4788.png
googlenet,5,850,NaN,airplane,airplane,c05,5970_cop_dnn_c05_airplane_10_n02690373_5797.png
googlenet,5,851,NaN,clock,clock,c05,5971_cop_dnn_c05_clock_10_n04548280_3605.png
googlenet,5,852,NaN,airplane,clock,c05,5972_cop_dnn_c05_clock_10_n03196217_5052.png
googlenet,5,853,NaN,bottle,clock,c05,5973_cop_dnn_c05_clock_10_n02708093_22.png
googlenet,5,854,NaN,bottle,clock,c05,5974_cop_dnn_c05_clock_10_n02708093_7899.png
googlenet,5,855,NaN,bottle,clock,c05,5975_cop_dnn_c05_clock_10_n02708093_6673.png
googlenet,5,856,NaN,clock,clock,c05,5976_cop_dnn_c05_clock_10_n04548280_7047.png
googlenet,5,857,NaN,bottle,clock,c05,5977_cop_dnn_c05_clock_10_n02708093_4833.png
googlenet,5,858,NaN,clock,clock,c05,5978_cop_dnn_c05_clock_10_n04548280_11412.png
googlenet,5,859,NaN,bottle,clock,c05,5979_cop_dnn_c05_clock_10_n02708093_7841.png
googlenet,5,860,NaN,clock,clock,c05,5980_cop_dnn_c05_clock_10_n02708093_3454.png
googlenet,5,861,NaN,cat,oven,c05,5981_cop_dnn_c05_oven_10_n04111531_12702.png
googlenet,5,862,NaN,bird,oven,c05,5982_cop_dnn_c05_oven_10_n04111531_6454.png
googlenet,5,863,NaN,bottle,oven,c05,5983_cop_dnn_c05_oven_10_n04111531_6094.png
googlenet,5,864,NaN,bear,oven,c05,5984_cop_dnn_c05_oven_10_n04111531_20493.png
googlenet,5,865,NaN,bottle,oven,c05,5985_cop_dnn_c05_oven_10_n04111531_1847.png
googlenet,5,866,NaN,knife,oven,c05,5986_cop_dnn_c05_oven_10_n04111531_2213.png
googlenet,5,867,NaN,clock,oven,c05,5987_cop_dnn_c05_oven_10_n04111531_1305.png
googlenet,5,868,NaN,bottle,oven,c05,5988_cop_dnn_c05_oven_10_n04111531_22563.png
googlenet,5,869,NaN,bottle,oven,c05,5989_cop_dnn_c05_oven_10_n04111531_22203.png
googlenet,5,870,NaN,bird,oven,c05,5990_cop_dnn_c05_oven_10_n04111531_12885.png
googlenet,5,871,NaN,airplane,chair,c05,5991_cop_dnn_c05_chair_10_n04099969_11938.png
googlenet,5,872,NaN,bottle,chair,c05,5992_cop_dnn_c05_chair_10_n04429376_24716.png
googlenet,5,873,NaN,bottle,chair,c05,5993_cop_dnn_c05_chair_10_n04429376_34265.png
googlenet,5,874,NaN,bottle,chair,c05,5994_cop_dnn_c05_chair_10_n02791124_4679.png
googlenet,5,875,NaN,bottle,chair,c05,5995_cop_dnn_c05_chair_10_n03376595_13441.png
googlenet,5,876,NaN,chair,chair,c05,5996_cop_dnn_c05_chair_10_n03376595_2345.png
googlenet,5,877,NaN,chair,chair,c05,5997_cop_dnn_c05_chair_10_n04099969_8868.png
googlenet,5,878,NaN,bottle,chair,c05,5998_cop_dnn_c05_chair_10_n04429376_439.png
googlenet,5,879,NaN,bottle,chair,c05,5999_cop_dnn_c05_chair_10_n02791124_6375.png
googlenet,5,880,NaN,chair,chair,c05,6000_cop_dnn_c05_chair_10_n04429376_15153.png
googlenet,5,881,NaN,bear,bear,c05,6001_cop_dnn_c05_bear_10_n02132136_8540.png
googlenet,5,882,NaN,bear,bear,c05,6002_cop_dnn_c05_bear_10_n02132136_13623.png
googlenet,5,883,NaN,clock,bear,c05,6003_cop_dnn_c05_bear_10_n02133161_5382.png
googlenet,5,884,NaN,bear,bear,c05,6004_cop_dnn_c05_bear_10_n02134418_836.png
googlenet,5,885,NaN,bear,bear,c05,6005_cop_dnn_c05_bear_10_n02134418_4267.png
googlenet,5,886,NaN,bear,bear,c05,6006_cop_dnn_c05_bear_10_n02134418_6240.png
googlenet,5,887,NaN,bear,bear,c05,6007_cop_dnn_c05_bear_10_n02133161_16064.png
googlenet,5,888,NaN,bear,bear,c05,6008_cop_dnn_c05_bear_10_n02134084_16757.png
googlenet,5,889,NaN,bear,bear,c05,6009_cop_dnn_c05_bear_10_n02134418_3289.png
googlenet,5,890,NaN,bird,bear,c05,6010_cop_dnn_c05_bear_10_n02134418_931.png
googlenet,5,891,NaN,airplane,boat,c05,6011_cop_dnn_c05_boat_10_n04273569_1229.png
googlenet,5,892,NaN,boat,boat,c05,6012_cop_dnn_c05_boat_10_n04612504_10161.png
googlenet,5,893,NaN,boat,boat,c05,6013_cop_dnn_c05_boat_10_n04612504_6722.png
googlenet,5,894,NaN,boat,boat,c05,6014_cop_dnn_c05_boat_10_n04612504_1099.png
googlenet,5,895,NaN,bottle,boat,c05,6015_cop_dnn_c05_boat_10_n04612504_21983.png
googlenet,5,896,NaN,knife,boat,c05,6016_cop_dnn_c05_boat_10_n04612504_5965.png
googlenet,5,897,NaN,bottle,boat,c05,6017_cop_dnn_c05_boat_10_n03662601_16694.png
googlenet,5,898,NaN,airplane,boat,c05,6018_cop_dnn_c05_boat_10_n03344393_661.png
googlenet,5,899,NaN,airplane,boat,c05,6019_cop_dnn_c05_boat_10_n04273569_31959.png
googlenet,5,900,NaN,bird,boat,c05,6020_cop_dnn_c05_boat_10_n02951358_14721.png
googlenet,5,901,NaN,bear,cat,c05,6021_cop_dnn_c05_cat_10_n02124075_13512.png
googlenet,5,902,NaN,bear,cat,c05,6022_cop_dnn_c05_cat_10_n02123159_4555.png
googlenet,5,903,NaN,bird,cat,c05,6023_cop_dnn_c05_cat_10_n02123045_6125.png
googlenet,5,904,NaN,bird,cat,c05,6024_cop_dnn_c05_cat_10_n02123045_7168.png
googlenet,5,905,NaN,bear,cat,c05,6025_cop_dnn_c05_cat_10_n02123045_7335.png
googlenet,5,906,NaN,cat,cat,c05,6026_cop_dnn_c05_cat_10_n02123394_1760.png
googlenet,5,907,NaN,bear,cat,c05,6027_cop_dnn_c05_cat_10_n02123159_2146.png
googlenet,5,908,NaN,dog,cat,c05,6028_cop_dnn_c05_cat_10_n02123394_464.png
googlenet,5,909,NaN,cat,cat,c05,6029_cop_dnn_c05_cat_10_n02123394_706.png
googlenet,5,910,NaN,bear,cat,c05,6030_cop_dnn_c05_cat_10_n02123159_2902.png
googlenet,5,911,NaN,bottle,bottle,c05,6031_cop_dnn_c05_bottle_10_n04579145_5850.png
googlenet,5,912,NaN,bird,bottle,c05,6032_cop_dnn_c05_bottle_10_n04557648_11812.png
googlenet,5,913,NaN,bottle,bottle,c05,6033_cop_dnn_c05_bottle_10_n04591713_3470.png
googlenet,5,914,NaN,clock,bottle,c05,6034_cop_dnn_c05_bottle_10_n04591713_619.png
googlenet,5,915,NaN,bottle,bottle,c05,6035_cop_dnn_c05_bottle_10_n04591713_2525.png
googlenet,5,916,NaN,bottle,bottle,c05,6036_cop_dnn_c05_bottle_10_n04579145_2313.png
googlenet,5,917,NaN,bottle,bottle,c05,6037_cop_dnn_c05_bottle_10_n03983396_4266.png
googlenet,5,918,NaN,bottle,bottle,c05,6038_cop_dnn_c05_bottle_10_n04591713_6923.png
googlenet,5,919,NaN,bottle,bottle,c05,6039_cop_dnn_c05_bottle_10_n04560804_28761.png
googlenet,5,920,NaN,bottle,bottle,c05,6040_cop_dnn_c05_bottle_10_n04560804_19221.png
googlenet,5,921,NaN,bottle,truck,c05,6041_cop_dnn_c05_truck_10_n03417042_3731.png
googlenet,5,922,NaN,truck,truck,c05,6042_cop_dnn_c05_truck_10_n03796401_7928.png
googlenet,5,923,NaN,airplane,truck,c05,6043_cop_dnn_c05_truck_10_n04467665_356.png
googlenet,5,924,NaN,bottle,truck,c05,6044_cop_dnn_c05_truck_10_n03417042_5218.png
googlenet,5,925,NaN,bear,truck,c05,6045_cop_dnn_c05_truck_10_n03796401_22744.png
googlenet,5,926,NaN,airplane,truck,c05,6046_cop_dnn_c05_truck_10_n04467665_3683.png
googlenet,5,927,NaN,bottle,truck,c05,6047_cop_dnn_c05_truck_10_n03417042_22635.png
googlenet,5,928,NaN,airplane,truck,c05,6048_cop_dnn_c05_truck_10_n04467665_8443.png
googlenet,5,929,NaN,bear,truck,c05,6049_cop_dnn_c05_truck_10_n03417042_20489.png
googlenet,5,930,NaN,bottle,truck,c05,6050_cop_dnn_c05_truck_10_n04467665_4371.png
googlenet,5,931,NaN,car,car,c05,6051_cop_dnn_c05_car_10_n03100240_8288.png
googlenet,5,932,NaN,bottle,car,c05,6052_cop_dnn_c05_car_10_n03100240_20489.png
googlenet,5,933,NaN,car,car,c05,6053_cop_dnn_c05_car_10_n03100240_8351.png
googlenet,5,934,NaN,bottle,car,c05,6054_cop_dnn_c05_car_10_n04285008_8699.png
googlenet,5,935,NaN,truck,car,c05,6055_cop_dnn_c05_car_10_n02814533_2880.png
googlenet,5,936,NaN,bottle,car,c05,6056_cop_dnn_c05_car_10_n03100240_5673.png
googlenet,5,937,NaN,bottle,car,c05,6057_cop_dnn_c05_car_10_n04285008_7951.png
googlenet,5,938,NaN,bottle,car,c05,6058_cop_dnn_c05_car_10_n02814533_40984.png
googlenet,5,939,NaN,car,car,c05,6059_cop_dnn_c05_car_10_n02814533_5357.png
googlenet,5,940,NaN,bottle,car,c05,6060_cop_dnn_c05_car_10_n04285008_4236.png
googlenet,5,941,NaN,bear,bird,c05,6061_cop_dnn_c05_bird_10_n02017213_3854.png
googlenet,5,942,NaN,bear,bird,c05,6062_cop_dnn_c05_bird_10_n01817953_13285.png
googlenet,5,943,NaN,bird,bird,c05,6063_cop_dnn_c05_bird_10_n02017213_2695.png
googlenet,5,944,NaN,bottle,bird,c05,6064_cop_dnn_c05_bird_10_n01843383_4963.png
googlenet,5,945,NaN,clock,bird,c05,6065_cop_dnn_c05_bird_10_n01843383_1801.png
googlenet,5,946,NaN,clock,bird,c05,6066_cop_dnn_c05_bird_10_n01817953_13483.png
googlenet,5,947,NaN,bear,bird,c05,6067_cop_dnn_c05_bird_10_n01614925_27858.png
googlenet,5,948,NaN,bird,bird,c05,6068_cop_dnn_c05_bird_10_n01860187_2928.png
googlenet,5,949,NaN,bird,bird,c05,6069_cop_dnn_c05_bird_10_n02027492_6294.png
googlenet,5,950,NaN,bird,bird,c05,6070_cop_dnn_c05_bird_10_n01582220_7440.png
googlenet,5,951,NaN,dog,dog,c05,6071_cop_dnn_c05_dog_10_n02110958_3966.png
googlenet,5,952,NaN,dog,dog,c05,6072_cop_dnn_c05_dog_10_n02086240_5027.png
googlenet,5,953,NaN,clock,dog,c05,6073_cop_dnn_c05_dog_10_n02088466_9521.png
googlenet,5,954,NaN,bear,dog,c05,6074_cop_dnn_c05_dog_10_n02086646_8962.png
googlenet,5,955,NaN,bottle,dog,c05,6075_cop_dnn_c05_dog_10_n02109047_11090.png
googlenet,5,956,NaN,bottle,dog,c05,6076_cop_dnn_c05_dog_10_n02086910_5962.png
googlenet,5,957,NaN,airplane,dog,c05,6077_cop_dnn_c05_dog_10_n02096294_7560.png
googlenet,5,958,NaN,chair,dog,c05,6078_cop_dnn_c05_dog_10_n02099429_4300.png
googlenet,5,959,NaN,cat,dog,c05,6079_cop_dnn_c05_dog_10_n02110063_8494.png
googlenet,5,960,NaN,bear,dog,c05,6080_cop_dnn_c05_dog_10_n02095314_4978.png
googlenet,5,961,NaN,airplane,knife,c03,6081_cop_dnn_c03_knife_10_n03041632_15444.png
googlenet,5,962,NaN,bottle,knife,c03,6082_cop_dnn_c03_knife_10_n03041632_24883.png
googlenet,5,963,NaN,knife,knife,c03,6083_cop_dnn_c03_knife_10_n03041632_10802.png
googlenet,5,964,NaN,knife,knife,c03,6084_cop_dnn_c03_knife_10_n03041632_12707.png
googlenet,5,965,NaN,bear,knife,c03,6085_cop_dnn_c03_knife_10_n03041632_95293.png
googlenet,5,966,NaN,bottle,knife,c03,6086_cop_dnn_c03_knife_10_n03041632_8618.png
googlenet,5,967,NaN,bottle,knife,c03,6087_cop_dnn_c03_knife_10_n03041632_16826.png
googlenet,5,968,NaN,airplane,knife,c03,6088_cop_dnn_c03_knife_10_n03041632_48071.png
googlenet,5,969,NaN,clock,knife,c03,6089_cop_dnn_c03_knife_10_n03041632_7448.png
googlenet,5,970,NaN,airplane,knife,c03,6090_cop_dnn_c03_knife_10_n03041632_44363.png
googlenet,5,971,NaN,bear,keyboard,c03,6091_cop_dnn_c03_keyboard_10_n03085013_23316.png
googlenet,5,972,NaN,clock,keyboard,c03,6092_cop_dnn_c03_keyboard_10_n03085013_3489.png
googlenet,5,973,NaN,keyboard,keyboard,c03,6093_cop_dnn_c03_keyboard_10_n04505470_4246.png
googlenet,5,974,NaN,bottle,keyboard,c03,6094_cop_dnn_c03_keyboard_10_n04505470_9446.png
googlenet,5,975,NaN,bottle,keyboard,c03,6095_cop_dnn_c03_keyboard_10_n04505470_4487.png
googlenet,5,976,NaN,bottle,keyboard,c03,6096_cop_dnn_c03_keyboard_10_n04505470_3117.png
googlenet,5,977,NaN,knife,keyboard,c03,6097_cop_dnn_c03_keyboard_10_n04505470_4562.png
googlenet,5,978,NaN,airplane,keyboard,c03,6098_cop_dnn_c03_keyboard_10_n03085013_24392.png
googlenet,5,979,NaN,keyboard,keyboard,c03,6099_cop_dnn_c03_keyboard_10_n03085013_21399.png
googlenet,5,980,NaN,bear,keyboard,c03,6100_cop_dnn_c03_keyboard_10_n03085013_23005.png
googlenet,5,981,NaN,bear,elephant,c03,6101_cop_dnn_c03_elephant_10_n02504013_18091.png
googlenet,5,982,NaN,clock,elephant,c03,6102_cop_dnn_c03_elephant_10_n02504458_804.png
googlenet,5,983,NaN,bear,elephant,c03,6103_cop_dnn_c03_elephant_10_n02504458_12855.png
googlenet,5,984,NaN,bird,elephant,c03,6104_cop_dnn_c03_elephant_10_n02504458_1233.png
googlenet,5,985,NaN,airplane,elephant,c03,6105_cop_dnn_c03_elephant_10_n02504013_9402.png
googlenet,5,986,NaN,bear,elephant,c03,6106_cop_dnn_c03_elephant_10_n02504013_4995.png
googlenet,5,987,NaN,bear,elephant,c03,6107_cop_dnn_c03_elephant_10_n02504013_6737.png
googlenet,5,988,NaN,bear,elephant,c03,6108_cop_dnn_c03_elephant_10_n02504458_6874.png
googlenet,5,989,NaN,airplane,elephant,c03,6109_cop_dnn_c03_elephant_10_n02504458_1985.png
googlenet,5,990,NaN,airplane,elephant,c03,6110_cop_dnn_c03_elephant_10_n02504013_8856.png
googlenet,5,991,NaN,bottle,bicycle,c03,6111_cop_dnn_c03_bicycle_10_n03792782_3467.png
googlenet,5,992,NaN,bottle,bicycle,c03,6112_cop_dnn_c03_bicycle_10_n02835271_1487.png
googlenet,5,993,NaN,bottle,bicycle,c03,6113_cop_dnn_c03_bicycle_10_n02835271_7594.png
googlenet,5,994,NaN,bottle,bicycle,c03,6114_cop_dnn_c03_bicycle_10_n02835271_4480.png
googlenet,5,995,NaN,bear,bicycle,c03,6115_cop_dnn_c03_bicycle_10_n02835271_5193.png
googlenet,5,996,NaN,bottle,bicycle,c03,6116_cop_dnn_c03_bicycle_10_n02835271_2671.png
googlenet,5,997,NaN,bear,bicycle,c03,6117_cop_dnn_c03_bicycle_10_n03792782_10395.png
googlenet,5,998,NaN,bottle,bicycle,c03,6118_cop_dnn_c03_bicycle_10_n03792782_15758.png
googlenet,5,999,NaN,knife,bicycle,c03,6119_cop_dnn_c03_bicycle_10_n03792782_952.png
googlenet,5,1000,NaN,airplane,bicycle,c03,6120_cop_dnn_c03_bicycle_10_n03792782_6023.png
googlenet,5,1001,NaN,bottle,airplane,c03,6121_cop_dnn_c03_airplane_10_n02690373_2131.png
googlenet,5,1002,NaN,airplane,airplane,c03,6122_cop_dnn_c03_airplane_10_n02690373_10181.png
googlenet,5,1003,NaN,cat,airplane,c03,6123_cop_dnn_c03_airplane_10_n02690373_3492.png
googlenet,5,1004,NaN,airplane,airplane,c03,6124_cop_dnn_c03_airplane_10_n02690373_6336.png
googlenet,5,1005,NaN,airplane,airplane,c03,6125_cop_dnn_c03_airplane_10_n02690373_997.png
googlenet,5,1006,NaN,airplane,airplane,c03,6126_cop_dnn_c03_airplane_10_n02690373_2440.png
googlenet,5,1007,NaN,airplane,airplane,c03,6127_cop_dnn_c03_airplane_10_n02690373_1279.png
googlenet,5,1008,NaN,airplane,airplane,c03,6128_cop_dnn_c03_airplane_10_n02690373_8950.png
googlenet,5,1009,NaN,airplane,airplane,c03,6129_cop_dnn_c03_airplane_10_n02690373_8967.png
googlenet,5,1010,NaN,airplane,airplane,c03,6130_cop_dnn_c03_airplane_10_n02690373_7311.png
googlenet,5,1011,NaN,bottle,clock,c03,6131_cop_dnn_c03_clock_10_n04548280_8008.png
googlenet,5,1012,NaN,knife,clock,c03,6132_cop_dnn_c03_clock_10_n03196217_4342.png
googlenet,5,1013,NaN,bottle,clock,c03,6133_cop_dnn_c03_clock_10_n02708093_214.png
googlenet,5,1014,NaN,clock,clock,c03,6134_cop_dnn_c03_clock_10_n04548280_4588.png
googlenet,5,1015,NaN,knife,clock,c03,6135_cop_dnn_c03_clock_10_n03196217_9069.png
googlenet,5,1016,NaN,clock,clock,c03,6136_cop_dnn_c03_clock_10_n02708093_2778.png
googlenet,5,1017,NaN,airplane,clock,c03,6137_cop_dnn_c03_clock_10_n04548280_3708.png
googlenet,5,1018,NaN,clock,clock,c03,6138_cop_dnn_c03_clock_10_n02708093_2346.png
googlenet,5,1019,NaN,knife,clock,c03,6139_cop_dnn_c03_clock_10_n03196217_5893.png
googlenet,5,1020,NaN,clock,clock,c03,6140_cop_dnn_c03_clock_10_n02708093_7105.png
googlenet,5,1021,NaN,bottle,oven,c03,6141_cop_dnn_c03_oven_10_n04111531_12510.png
googlenet,5,1022,NaN,knife,oven,c03,6142_cop_dnn_c03_oven_10_n04111531_5429.png
googlenet,5,1023,NaN,knife,oven,c03,6143_cop_dnn_c03_oven_10_n04111531_16270.png
googlenet,5,1024,NaN,bear,oven,c03,6144_cop_dnn_c03_oven_10_n04111531_9982.png
googlenet,5,1025,NaN,knife,oven,c03,6145_cop_dnn_c03_oven_10_n04111531_1313.png
googlenet,5,1026,NaN,knife,oven,c03,6146_cop_dnn_c03_oven_10_n04111531_4407.png
googlenet,5,1027,NaN,knife,oven,c03,6147_cop_dnn_c03_oven_10_n04111531_3063.png
googlenet,5,1028,NaN,dog,oven,c03,6148_cop_dnn_c03_oven_10_n04111531_4452.png
googlenet,5,1029,NaN,knife,oven,c03,6149_cop_dnn_c03_oven_10_n04111531_716.png
googlenet,5,1030,NaN,knife,oven,c03,6150_cop_dnn_c03_oven_10_n04111531_22466.png
googlenet,5,1031,NaN,bottle,chair,c03,6151_cop_dnn_c03_chair_10_n04099969_1795.png
googlenet,5,1032,NaN,chair,chair,c03,6152_cop_dnn_c03_chair_10_n03376595_596.png
googlenet,5,1033,NaN,bottle,chair,c03,6153_cop_dnn_c03_chair_10_n04099969_3621.png
googlenet,5,1034,NaN,bottle,chair,c03,6154_cop_dnn_c03_chair_10_n03376595_13703.png
googlenet,5,1035,NaN,knife,chair,c03,6155_cop_dnn_c03_chair_10_n04429376_23972.png
googlenet,5,1036,NaN,knife,chair,c03,6156_cop_dnn_c03_chair_10_n04429376_19354.png
googlenet,5,1037,NaN,knife,chair,c03,6157_cop_dnn_c03_chair_10_n02791124_3431.png
googlenet,5,1038,NaN,boat,chair,c03,6158_cop_dnn_c03_chair_10_n04429376_6268.png
googlenet,5,1039,NaN,bottle,chair,c03,6159_cop_dnn_c03_chair_10_n04099969_17069.png
googlenet,5,1040,NaN,bottle,chair,c03,6160_cop_dnn_c03_chair_10_n03376595_6865.png
googlenet,5,1041,NaN,airplane,bear,c03,6161_cop_dnn_c03_bear_10_n02132136_9840.png
googlenet,5,1042,NaN,dog,bear,c03,6162_cop_dnn_c03_bear_10_n02132136_18776.png
googlenet,5,1043,NaN,bird,bear,c03,6163_cop_dnn_c03_bear_10_n02133161_16188.png
googlenet,5,1044,NaN,clock,bear,c03,6164_cop_dnn_c03_bear_10_n02134084_18968.png
googlenet,5,1045,NaN,bear,bear,c03,6165_cop_dnn_c03_bear_10_n02134418_1263.png
googlenet,5,1046,NaN,bear,bear,c03,6166_cop_dnn_c03_bear_10_n02134418_10879.png
googlenet,5,1047,NaN,bear,bear,c03,6167_cop_dnn_c03_bear_10_n02132136_16055.png
googlenet,5,1048,NaN,bear,bear,c03,6168_cop_dnn_c03_bear_10_n02134418_3053.png
googlenet,5,1049,NaN,bear,bear,c03,6169_cop_dnn_c03_bear_10_n02134084_23313.png
googlenet,5,1050,NaN,bear,bear,c03,6170_cop_dnn_c03_bear_10_n02132136_3603.png
googlenet,5,1051,NaN,bird,boat,c03,6171_cop_dnn_c03_boat_10_n04273569_1449.png
googlenet,5,1052,NaN,bird,boat,c03,6172_cop_dnn_c03_boat_10_n03344393_5350.png
googlenet,5,1053,NaN,bottle,boat,c03,6173_cop_dnn_c03_boat_10_n02951358_22476.png
googlenet,5,1054,NaN,airplane,boat,c03,6174_cop_dnn_c03_boat_10_n03344393_2846.png
googlenet,5,1055,NaN,airplane,boat,c03,6175_cop_dnn_c03_boat_10_n02951358_3936.png
googlenet,5,1056,NaN,bird,boat,c03,6176_cop_dnn_c03_boat_10_n03344393_2582.png
googlenet,5,1057,NaN,bear,boat,c03,6177_cop_dnn_c03_boat_10_n04273569_16078.png
googlenet,5,1058,NaN,bird,boat,c03,6178_cop_dnn_c03_boat_10_n03344393_3185.png
googlenet,5,1059,NaN,bird,boat,c03,6179_cop_dnn_c03_boat_10_n02951358_3481.png
googlenet,5,1060,NaN,airplane,boat,c03,6180_cop_dnn_c03_boat_10_n04612504_10815.png
googlenet,5,1061,NaN,clock,cat,c03,6181_cop_dnn_c03_cat_10_n02123597_6398.png
googlenet,5,1062,NaN,airplane,cat,c03,6182_cop_dnn_c03_cat_10_n02123045_4314.png
googlenet,5,1063,NaN,airplane,cat,c03,6183_cop_dnn_c03_cat_10_n02123159_1762.png
googlenet,5,1064,NaN,cat,cat,c03,6184_cop_dnn_c03_cat_10_n02123597_10825.png
googlenet,5,1065,NaN,bear,cat,c03,6185_cop_dnn_c03_cat_10_n02123159_2869.png
googlenet,5,1066,NaN,bear,cat,c03,6186_cop_dnn_c03_cat_10_n02123159_2167.png
googlenet,5,1067,NaN,airplane,cat,c03,6187_cop_dnn_c03_cat_10_n02123394_2047.png
googlenet,5,1068,NaN,bear,cat,c03,6188_cop_dnn_c03_cat_10_n02123159_5656.png
googlenet,5,1069,NaN,airplane,cat,c03,6189_cop_dnn_c03_cat_10_n02123597_14530.png
googlenet,5,1070,NaN,airplane,cat,c03,6190_cop_dnn_c03_cat_10_n02123394_1849.png
googlenet,5,1071,NaN,bottle,bottle,c03,6191_cop_dnn_c03_bottle_10_n02823428_2653.png
googlenet,5,1072,NaN,bottle,bottle,c03,6192_cop_dnn_c03_bottle_10_n03983396_4682.png
googlenet,5,1073,NaN,bottle,bottle,c03,6193_cop_dnn_c03_bottle_10_n03983396_13300.png
googlenet,5,1074,NaN,knife,bottle,c03,6194_cop_dnn_c03_bottle_10_n03983396_6306.png
googlenet,5,1075,NaN,bird,bottle,c03,6195_cop_dnn_c03_bottle_10_n02823428_4194.png
googlenet,5,1076,NaN,bird,bottle,c03,6196_cop_dnn_c03_bottle_10_n04579145_7417.png
googlenet,5,1077,NaN,bottle,bottle,c03,6197_cop_dnn_c03_bottle_10_n04557648_1530.png
googlenet,5,1078,NaN,bottle,bottle,c03,6198_cop_dnn_c03_bottle_10_n03937543_1719.png
googlenet,5,1079,NaN,bear,bottle,c03,6199_cop_dnn_c03_bottle_10_n03983396_17260.png
googlenet,5,1080,NaN,bottle,bottle,c03,6200_cop_dnn_c03_bottle_10_n03937543_7477.png
googlenet,5,1081,NaN,bear,truck,c03,6201_cop_dnn_c03_truck_10_n04467665_40886.png
googlenet,5,1082,NaN,airplane,truck,c03,6202_cop_dnn_c03_truck_10_n04467665_7876.png
googlenet,5,1083,NaN,knife,truck,c03,6203_cop_dnn_c03_truck_10_n04467665_66750.png
googlenet,5,1084,NaN,bottle,truck,c03,6204_cop_dnn_c03_truck_10_n03417042_16238.png
googlenet,5,1085,NaN,bottle,truck,c03,6205_cop_dnn_c03_truck_10_n03417042_2603.png
googlenet,5,1086,NaN,airplane,truck,c03,6206_cop_dnn_c03_truck_10_n03796401_1681.png
googlenet,5,1087,NaN,bird,truck,c03,6207_cop_dnn_c03_truck_10_n03417042_1492.png
googlenet,5,1088,NaN,cat,truck,c03,6208_cop_dnn_c03_truck_10_n03417042_1635.png
googlenet,5,1089,NaN,clock,truck,c03,6209_cop_dnn_c03_truck_10_n03417042_16871.png
googlenet,5,1090,NaN,airplane,truck,c03,6210_cop_dnn_c03_truck_10_n03417042_3280.png
googlenet,5,1091,NaN,bear,car,c03,6211_cop_dnn_c03_car_10_n03100240_16860.png
googlenet,5,1092,NaN,bear,car,c03,6212_cop_dnn_c03_car_10_n04285008_901.png
googlenet,5,1093,NaN,cat,car,c03,6213_cop_dnn_c03_car_10_n02814533_596.png
googlenet,5,1094,NaN,bottle,car,c03,6214_cop_dnn_c03_car_10_n02814533_86307.png
googlenet,5,1095,NaN,airplane,car,c03,6215_cop_dnn_c03_car_10_n02814533_90486.png
googlenet,5,1096,NaN,bear,car,c03,6216_cop_dnn_c03_car_10_n03100240_3192.png
googlenet,5,1097,NaN,bear,car,c03,6217_cop_dnn_c03_car_10_n04285008_4331.png
googlenet,5,1098,NaN,bottle,car,c03,6218_cop_dnn_c03_car_10_n03100240_20114.png
googlenet,5,1099,NaN,bottle,car,c03,6219_cop_dnn_c03_car_10_n03100240_2682.png
googlenet,5,1100,NaN,bottle,car,c03,6220_cop_dnn_c03_car_10_n03100240_6626.png
googlenet,5,1101,NaN,bottle,bird,c03,6221_cop_dnn_c03_bird_10_n01843383_9885.png
googlenet,5,1102,NaN,bear,bird,c03,6222_cop_dnn_c03_bird_10_n01819313_11428.png
googlenet,5,1103,NaN,airplane,bird,c03,6223_cop_dnn_c03_bird_10_n01558993_12.png
googlenet,5,1104,NaN,bear,bird,c03,6224_cop_dnn_c03_bird_10_n01532829_30432.png
googlenet,5,1105,NaN,airplane,bird,c03,6225_cop_dnn_c03_bird_10_n01795545_67.png
googlenet,5,1106,NaN,airplane,bird,c03,6226_cop_dnn_c03_bird_10_n02033041_2069.png
googlenet,5,1107,NaN,airplane,bird,c03,6227_cop_dnn_c03_bird_10_n01843065_11347.png
googlenet,5,1108,NaN,bird,bird,c03,6228_cop_dnn_c03_bird_10_n02051845_5482.png
googlenet,5,1109,NaN,airplane,bird,c03,6229_cop_dnn_c03_bird_10_n01843065_2043.png
googlenet,5,1110,NaN,bird,bird,c03,6230_cop_dnn_c03_bird_10_n01558993_3860.png
googlenet,5,1111,NaN,bear,dog,c03,6231_cop_dnn_c03_dog_10_n02097047_1181.png
googlenet,5,1112,NaN,dog,dog,c03,6232_cop_dnn_c03_dog_10_n02099267_3136.png
googlenet,5,1113,NaN,bird,dog,c03,6233_cop_dnn_c03_dog_10_n02109961_66062.png
googlenet,5,1114,NaN,bear,dog,c03,6234_cop_dnn_c03_dog_10_n02100877_16568.png
googlenet,5,1115,NaN,bottle,dog,c03,6235_cop_dnn_c03_dog_10_n02110185_8223.png
googlenet,5,1116,NaN,airplane,dog,c03,6236_cop_dnn_c03_dog_10_n02100877_26008.png
googlenet,5,1117,NaN,bear,dog,c03,6237_cop_dnn_c03_dog_10_n02112018_10583.png
googlenet,5,1118,NaN,dog,dog,c03,6238_cop_dnn_c03_dog_10_n02107142_8568.png
googlenet,5,1119,NaN,bird,dog,c03,6239_cop_dnn_c03_dog_10_n02098286_166.png
googlenet,5,1120,NaN,bear,dog,c03,6240_cop_dnn_c03_dog_10_n02108000_4104.png
googlenet,5,1121,NaN,airplane,knife,c01,6241_cop_dnn_c01_knife_10_n03041632_9635.png
googlenet,5,1122,NaN,clock,knife,c01,6242_cop_dnn_c01_knife_10_n03041632_105081.png
googlenet,5,1123,NaN,airplane,knife,c01,6243_cop_dnn_c01_knife_10_n03041632_16932.png
googlenet,5,1124,NaN,bear,knife,c01,6244_cop_dnn_c01_knife_10_n03041632_28129.png
googlenet,5,1125,NaN,clock,knife,c01,6245_cop_dnn_c01_knife_10_n03041632_89912.png
googlenet,5,1126,NaN,airplane,knife,c01,6246_cop_dnn_c01_knife_10_n03041632_24461.png
googlenet,5,1127,NaN,clock,knife,c01,6247_cop_dnn_c01_knife_10_n03041632_19275.png
googlenet,5,1128,NaN,airplane,knife,c01,6248_cop_dnn_c01_knife_10_n03041632_102764.png
googlenet,5,1129,NaN,airplane,knife,c01,6249_cop_dnn_c01_knife_10_n03041632_10540.png
googlenet,5,1130,NaN,airplane,knife,c01,6250_cop_dnn_c01_knife_10_n03041632_32979.png
googlenet,5,1131,NaN,airplane,keyboard,c01,6251_cop_dnn_c01_keyboard_10_n03085013_20492.png
googlenet,5,1132,NaN,clock,keyboard,c01,6252_cop_dnn_c01_keyboard_10_n03085013_11399.png
googlenet,5,1133,NaN,airplane,keyboard,c01,6253_cop_dnn_c01_keyboard_10_n04505470_5109.png
googlenet,5,1134,NaN,airplane,keyboard,c01,6254_cop_dnn_c01_keyboard_10_n04505470_2599.png
googlenet,5,1135,NaN,bird,keyboard,c01,6255_cop_dnn_c01_keyboard_10_n04505470_286.png
googlenet,5,1136,NaN,airplane,keyboard,c01,6256_cop_dnn_c01_keyboard_10_n04505470_2865.png
googlenet,5,1137,NaN,airplane,keyboard,c01,6257_cop_dnn_c01_keyboard_10_n03085013_29318.png
googlenet,5,1138,NaN,clock,keyboard,c01,6258_cop_dnn_c01_keyboard_10_n03085013_21886.png
googlenet,5,1139,NaN,airplane,keyboard,c01,6259_cop_dnn_c01_keyboard_10_n04505470_6327.png
googlenet,5,1140,NaN,knife,keyboard,c01,6260_cop_dnn_c01_keyboard_10_n04505470_4549.png
googlenet,5,1141,NaN,airplane,elephant,c01,6261_cop_dnn_c01_elephant_10_n02504458_7842.png
googlenet,5,1142,NaN,airplane,elephant,c01,6262_cop_dnn_c01_elephant_10_n02504013_3916.png
googlenet,5,1143,NaN,airplane,elephant,c01,6263_cop_dnn_c01_elephant_10_n02504458_9094.png
googlenet,5,1144,NaN,bird,elephant,c01,6264_cop_dnn_c01_elephant_10_n02504013_543.png
googlenet,5,1145,NaN,clock,elephant,c01,6265_cop_dnn_c01_elephant_10_n02504458_5277.png
googlenet,5,1146,NaN,airplane,elephant,c01,6266_cop_dnn_c01_elephant_10_n02504458_1519.png
googlenet,5,1147,NaN,airplane,elephant,c01,6267_cop_dnn_c01_elephant_10_n02504013_7633.png
googlenet,5,1148,NaN,clock,elephant,c01,6268_cop_dnn_c01_elephant_10_n02504013_4730.png
googlenet,5,1149,NaN,airplane,elephant,c01,6269_cop_dnn_c01_elephant_10_n02504458_6602.png
googlenet,5,1150,NaN,clock,elephant,c01,6270_cop_dnn_c01_elephant_10_n02504013_603.png
googlenet,5,1151,NaN,clock,bicycle,c01,6271_cop_dnn_c01_bicycle_10_n02835271_9531.png
googlenet,5,1152,NaN,clock,bicycle,c01,6272_cop_dnn_c01_bicycle_10_n03792782_3591.png
googlenet,5,1153,NaN,airplane,bicycle,c01,6273_cop_dnn_c01_bicycle_10_n02835271_3643.png
googlenet,5,1154,NaN,airplane,bicycle,c01,6274_cop_dnn_c01_bicycle_10_n03792782_7092.png
googlenet,5,1155,NaN,airplane,bicycle,c01,6275_cop_dnn_c01_bicycle_10_n02835271_922.png
googlenet,5,1156,NaN,airplane,bicycle,c01,6276_cop_dnn_c01_bicycle_10_n02835271_10754.png
googlenet,5,1157,NaN,airplane,bicycle,c01,6277_cop_dnn_c01_bicycle_10_n02835271_7639.png
googlenet,5,1158,NaN,airplane,bicycle,c01,6278_cop_dnn_c01_bicycle_10_n03792782_10763.png
googlenet,5,1159,NaN,clock,bicycle,c01,6279_cop_dnn_c01_bicycle_10_n03792782_988.png
googlenet,5,1160,NaN,airplane,bicycle,c01,6280_cop_dnn_c01_bicycle_10_n02835271_20975.png
googlenet,5,1161,NaN,airplane,airplane,c01,6281_cop_dnn_c01_airplane_10_n02690373_7740.png
googlenet,5,1162,NaN,bird,airplane,c01,6282_cop_dnn_c01_airplane_10_n02690373_8141.png
googlenet,5,1163,NaN,bird,airplane,c01,6283_cop_dnn_c01_airplane_10_n02690373_4671.png
googlenet,5,1164,NaN,airplane,airplane,c01,6284_cop_dnn_c01_airplane_10_n02690373_8417.png
googlenet,5,1165,NaN,airplane,airplane,c01,6285_cop_dnn_c01_airplane_10_n02690373_139.png
googlenet,5,1166,NaN,clock,airplane,c01,6286_cop_dnn_c01_airplane_10_n02690373_18693.png
googlenet,5,1167,NaN,bird,airplane,c01,6287_cop_dnn_c01_airplane_10_n02690373_1952.png
googlenet,5,1168,NaN,airplane,airplane,c01,6288_cop_dnn_c01_airplane_10_n02690373_4586.png
googlenet,5,1169,NaN,airplane,airplane,c01,6289_cop_dnn_c01_airplane_10_n02690373_2240.png
googlenet,5,1170,NaN,airplane,airplane,c01,6290_cop_dnn_c01_airplane_10_n02690373_1706.png
googlenet,5,1171,NaN,clock,clock,c01,6291_cop_dnn_c01_clock_10_n02708093_3355.png
googlenet,5,1172,NaN,clock,clock,c01,6292_cop_dnn_c01_clock_10_n02708093_2545.png
googlenet,5,1173,NaN,airplane,clock,c01,6293_cop_dnn_c01_clock_10_n03196217_5217.png
googlenet,5,1174,NaN,clock,clock,c01,6294_cop_dnn_c01_clock_10_n02708093_6655.png
googlenet,5,1175,NaN,clock,clock,c01,6295_cop_dnn_c01_clock_10_n02708093_1714.png
googlenet,5,1176,NaN,clock,clock,c01,6296_cop_dnn_c01_clock_10_n04548280_4229.png
googlenet,5,1177,NaN,bottle,clock,c01,6297_cop_dnn_c01_clock_10_n02708093_2580.png
googlenet,5,1178,NaN,airplane,clock,c01,6298_cop_dnn_c01_clock_10_n03196217_194.png
googlenet,5,1179,NaN,airplane,clock,c01,6299_cop_dnn_c01_clock_10_n02708093_276.png
googlenet,5,1180,NaN,airplane,clock,c01,6300_cop_dnn_c01_clock_10_n03196217_11657.png
googlenet,5,1181,NaN,clock,oven,c01,6301_cop_dnn_c01_oven_10_n04111531_766.png
googlenet,5,1182,NaN,airplane,oven,c01,6302_cop_dnn_c01_oven_10_n04111531_1050.png
googlenet,5,1183,NaN,bird,oven,c01,6303_cop_dnn_c01_oven_10_n04111531_10306.png
googlenet,5,1184,NaN,airplane,oven,c01,6304_cop_dnn_c01_oven_10_n04111531_13542.png
googlenet,5,1185,NaN,bird,oven,c01,6305_cop_dnn_c01_oven_10_n04111531_669.png
googlenet,5,1186,NaN,knife,oven,c01,6306_cop_dnn_c01_oven_10_n04111531_10769.png
googlenet,5,1187,NaN,airplane,oven,c01,6307_cop_dnn_c01_oven_10_n04111531_6568.png
googlenet,5,1188,NaN,airplane,oven,c01,6308_cop_dnn_c01_oven_10_n04111531_9702.png
googlenet,5,1189,NaN,airplane,oven,c01,6309_cop_dnn_c01_oven_10_n04111531_22097.png
googlenet,5,1190,NaN,airplane,oven,c01,6310_cop_dnn_c01_oven_10_n04111531_467.png
googlenet,5,1191,NaN,clock,chair,c01,6311_cop_dnn_c01_chair_10_n04099969_24666.png
googlenet,5,1192,NaN,airplane,chair,c01,6312_cop_dnn_c01_chair_10_n02791124_7818.png
googlenet,5,1193,NaN,airplane,chair,c01,6313_cop_dnn_c01_chair_10_n04429376_18546.png
googlenet,5,1194,NaN,bird,chair,c01,6314_cop_dnn_c01_chair_10_n02791124_15873.png
googlenet,5,1195,NaN,airplane,chair,c01,6315_cop_dnn_c01_chair_10_n04099969_17056.png
googlenet,5,1196,NaN,knife,chair,c01,6316_cop_dnn_c01_chair_10_n04429376_12605.png
googlenet,5,1197,NaN,clock,chair,c01,6317_cop_dnn_c01_chair_10_n02791124_4640.png
googlenet,5,1198,NaN,airplane,chair,c01,6318_cop_dnn_c01_chair_10_n03376595_9134.png
googlenet,5,1199,NaN,clock,chair,c01,6319_cop_dnn_c01_chair_10_n04429376_34079.png
