subj,session,trial,rt,object_response,category,condition,imagename
alexnet,7,1,NaN,knife,knife,bw,7681_cl_dnn_bw_knife_40_n03041632_44133.JPEG
alexnet,7,2,NaN,bottle,knife,bw,7682_cl_dnn_bw_knife_40_n03041632_17091.JPEG
alexnet,7,3,NaN,dog,knife,bw,7683_cl_dnn_bw_knife_40_n03041632_22190.JPEG
alexnet,7,4,NaN,knife,knife,bw,7684_cl_dnn_bw_knife_40_n03041632_16932.JPEG
alexnet,7,5,NaN,dog,knife,bw,7685_cl_dnn_bw_knife_40_n03041632_21017.JPEG
alexnet,7,6,NaN,knife,knife,bw,7686_cl_dnn_bw_knife_40_n03041632_14883.JPEG
alexnet,7,7,NaN,knife,knife,bw,7687_cl_dnn_bw_knife_40_n03041632_29285.JPEG
alexnet,7,8,NaN,knife,knife,bw,7688_cl_dnn_bw_knife_40_n03041632_39883.JPEG
alexnet,7,9,NaN,knife,knife,bw,7689_cl_dnn_bw_knife_40_n03041632_21034.JPEG
alexnet,7,10,NaN,knife,knife,bw,7690_cl_dnn_bw_knife_40_n03041632_19971.JPEG
alexnet,7,11,NaN,knife,knife,bw,7691_cl_dnn_bw_knife_40_n03041632_51581.JPEG
alexnet,7,12,NaN,knife,knife,bw,7692_cl_dnn_bw_knife_40_n03041632_13656.JPEG
alexnet,7,13,NaN,keyboard,knife,bw,7693_cl_dnn_bw_knife_40_n03041632_28202.JPEG
alexnet,7,14,NaN,bottle,knife,bw,7694_cl_dnn_bw_knife_40_n03041632_23548.JPEG
alexnet,7,15,NaN,bottle,knife,bw,7695_cl_dnn_bw_knife_40_n03041632_11741.JPEG
alexnet,7,16,NaN,knife,knife,bw,7696_cl_dnn_bw_knife_40_n03041632_40652.JPEG
alexnet,7,17,NaN,knife,knife,bw,7697_cl_dnn_bw_knife_40_n03041632_131.JPEG
alexnet,7,18,NaN,knife,knife,bw,7698_cl_dnn_bw_knife_40_n03041632_4494.JPEG
alexnet,7,19,NaN,bottle,knife,bw,7699_cl_dnn_bw_knife_40_n03041632_42887.JPEG
alexnet,7,20,NaN,clock,knife,bw,7700_cl_dnn_bw_knife_40_n03041632_44363.JPEG
alexnet,7,21,NaN,knife,knife,bw,7701_cl_dnn_bw_knife_40_n03041632_21859.JPEG
alexnet,7,22,NaN,knife,knife,bw,7702_cl_dnn_bw_knife_40_n03041632_36277.JPEG
alexnet,7,23,NaN,knife,knife,bw,7703_cl_dnn_bw_knife_40_n03041632_32377.JPEG
alexnet,7,24,NaN,knife,knife,bw,7704_cl_dnn_bw_knife_40_n03041632_36247.JPEG
alexnet,7,25,NaN,knife,knife,bw,7705_cl_dnn_bw_knife_40_n03041632_17285.JPEG
alexnet,7,26,NaN,knife,knife,bw,7706_cl_dnn_bw_knife_40_n03041632_10777.JPEG
alexnet,7,27,NaN,knife,knife,bw,7707_cl_dnn_bw_knife_40_n03041632_19866.JPEG
alexnet,7,28,NaN,keyboard,knife,bw,7708_cl_dnn_bw_knife_40_n03041632_289.JPEG
alexnet,7,29,NaN,knife,knife,bw,7709_cl_dnn_bw_knife_40_n03041632_28009.JPEG
alexnet,7,30,NaN,knife,knife,bw,7710_cl_dnn_bw_knife_40_n03041632_21425.JPEG
alexnet,7,31,NaN,dog,knife,bw,7711_cl_dnn_bw_knife_40_n03041632_36834.JPEG
alexnet,7,32,NaN,knife,knife,bw,7712_cl_dnn_bw_knife_40_n03041632_5916.JPEG
alexnet,7,33,NaN,keyboard,knife,bw,7713_cl_dnn_bw_knife_40_n03041632_45569.JPEG
alexnet,7,34,NaN,boat,knife,bw,7714_cl_dnn_bw_knife_40_n03041632_46720.JPEG
alexnet,7,35,NaN,knife,knife,bw,7715_cl_dnn_bw_knife_40_n03041632_26933.JPEG
alexnet,7,36,NaN,knife,knife,bw,7716_cl_dnn_bw_knife_40_n03041632_24461.JPEG
alexnet,7,37,NaN,knife,knife,bw,7717_cl_dnn_bw_knife_40_n03041632_38433.JPEG
alexnet,7,38,NaN,knife,knife,bw,7718_cl_dnn_bw_knife_40_n03041632_17349.JPEG
alexnet,7,39,NaN,bottle,knife,bw,7719_cl_dnn_bw_knife_40_n03041632_50332.JPEG
alexnet,7,40,NaN,boat,knife,bw,7720_cl_dnn_bw_knife_40_n03041632_15174.JPEG
alexnet,7,41,NaN,keyboard,keyboard,bw,7721_cl_dnn_bw_keyboard_40_n03085013_24045.JPEG
alexnet,7,42,NaN,keyboard,keyboard,bw,7722_cl_dnn_bw_keyboard_40_n03085013_23672.JPEG
alexnet,7,43,NaN,keyboard,keyboard,bw,7723_cl_dnn_bw_keyboard_40_n04505470_4741.JPEG
alexnet,7,44,NaN,keyboard,keyboard,bw,7724_cl_dnn_bw_keyboard_40_n04505470_6800.JPEG
alexnet,7,45,NaN,keyboard,keyboard,bw,7725_cl_dnn_bw_keyboard_40_n04505470_5141.JPEG
alexnet,7,46,NaN,keyboard,keyboard,bw,7726_cl_dnn_bw_keyboard_40_n04505470_4356.JPEG
alexnet,7,47,NaN,keyboard,keyboard,bw,7727_cl_dnn_bw_keyboard_40_n04505470_2600.JPEG
alexnet,7,48,NaN,keyboard,keyboard,bw,7728_cl_dnn_bw_keyboard_40_n04505470_4358.JPEG
alexnet,7,49,NaN,keyboard,keyboard,bw,7729_cl_dnn_bw_keyboard_40_n03085013_679.JPEG
alexnet,7,50,NaN,keyboard,keyboard,bw,7730_cl_dnn_bw_keyboard_40_n04505470_7681.JPEG
alexnet,7,51,NaN,keyboard,keyboard,bw,7731_cl_dnn_bw_keyboard_40_n03085013_21466.JPEG
alexnet,7,52,NaN,keyboard,keyboard,bw,7732_cl_dnn_bw_keyboard_40_n03085013_14643.JPEG
alexnet,7,53,NaN,keyboard,keyboard,bw,7733_cl_dnn_bw_keyboard_40_n04505470_4363.JPEG
alexnet,7,54,NaN,keyboard,keyboard,bw,7734_cl_dnn_bw_keyboard_40_n04505470_2601.JPEG
alexnet,7,55,NaN,keyboard,keyboard,bw,7735_cl_dnn_bw_keyboard_40_n04505470_1691.JPEG
alexnet,7,56,NaN,keyboard,keyboard,bw,7736_cl_dnn_bw_keyboard_40_n03085013_22254.JPEG
alexnet,7,57,NaN,keyboard,keyboard,bw,7737_cl_dnn_bw_keyboard_40_n04505470_4246.JPEG
alexnet,7,58,NaN,keyboard,keyboard,bw,7738_cl_dnn_bw_keyboard_40_n03085013_914.JPEG
alexnet,7,59,NaN,keyboard,keyboard,bw,7739_cl_dnn_bw_keyboard_40_n03085013_4600.JPEG
alexnet,7,60,NaN,keyboard,keyboard,bw,7740_cl_dnn_bw_keyboard_40_n03085013_4156.JPEG
alexnet,7,61,NaN,keyboard,keyboard,bw,7741_cl_dnn_bw_keyboard_40_n04505470_1245.JPEG
alexnet,7,62,NaN,keyboard,keyboard,bw,7742_cl_dnn_bw_keyboard_40_n04505470_6656.JPEG
alexnet,7,63,NaN,bottle,keyboard,bw,7743_cl_dnn_bw_keyboard_40_n03085013_18672.JPEG
alexnet,7,64,NaN,keyboard,keyboard,bw,7744_cl_dnn_bw_keyboard_40_n03085013_19285.JPEG
alexnet,7,65,NaN,keyboard,keyboard,bw,7745_cl_dnn_bw_keyboard_40_n03085013_21231.JPEG
alexnet,7,66,NaN,keyboard,keyboard,bw,7746_cl_dnn_bw_keyboard_40_n04505470_276.JPEG
alexnet,7,67,NaN,keyboard,keyboard,bw,7747_cl_dnn_bw_keyboard_40_n03085013_25181.JPEG
alexnet,7,68,NaN,chair,keyboard,bw,7748_cl_dnn_bw_keyboard_40_n04505470_5726.JPEG
alexnet,7,69,NaN,keyboard,keyboard,bw,7749_cl_dnn_bw_keyboard_40_n03085013_21399.JPEG
alexnet,7,70,NaN,keyboard,keyboard,bw,7750_cl_dnn_bw_keyboard_40_n04505470_4294.JPEG
alexnet,7,71,NaN,keyboard,keyboard,bw,7751_cl_dnn_bw_keyboard_40_n04505470_1787.JPEG
alexnet,7,72,NaN,keyboard,keyboard,bw,7752_cl_dnn_bw_keyboard_40_n03085013_26171.JPEG
alexnet,7,73,NaN,keyboard,keyboard,bw,7753_cl_dnn_bw_keyboard_40_n03085013_3733.JPEG
alexnet,7,74,NaN,keyboard,keyboard,bw,7754_cl_dnn_bw_keyboard_40_n04505470_6272.JPEG
alexnet,7,75,NaN,keyboard,keyboard,bw,7755_cl_dnn_bw_keyboard_40_n03085013_15530.JPEG
alexnet,7,76,NaN,keyboard,keyboard,bw,7756_cl_dnn_bw_keyboard_40_n04505470_5112.JPEG
alexnet,7,77,NaN,keyboard,keyboard,bw,7757_cl_dnn_bw_keyboard_40_n04505470_9788.JPEG
alexnet,7,78,NaN,keyboard,keyboard,bw,7758_cl_dnn_bw_keyboard_40_n03085013_3920.JPEG
alexnet,7,79,NaN,keyboard,keyboard,bw,7759_cl_dnn_bw_keyboard_40_n04505470_470.JPEG
alexnet,7,80,NaN,keyboard,keyboard,bw,7760_cl_dnn_bw_keyboard_40_n03085013_19601.JPEG
alexnet,7,81,NaN,elephant,elephant,bw,7761_cl_dnn_bw_elephant_40_n02504458_9835.JPEG
alexnet,7,82,NaN,elephant,elephant,bw,7762_cl_dnn_bw_elephant_40_n02504013_3402.JPEG
alexnet,7,83,NaN,elephant,elephant,bw,7763_cl_dnn_bw_elephant_40_n02504458_8064.JPEG
alexnet,7,84,NaN,elephant,elephant,bw,7764_cl_dnn_bw_elephant_40_n02504013_2536.JPEG
alexnet,7,85,NaN,dog,elephant,bw,7765_cl_dnn_bw_elephant_40_n02504013_3519.JPEG
alexnet,7,86,NaN,elephant,elephant,bw,7766_cl_dnn_bw_elephant_40_n02504458_6236.JPEG
alexnet,7,87,NaN,elephant,elephant,bw,7767_cl_dnn_bw_elephant_40_n02504013_5641.JPEG
alexnet,7,88,NaN,elephant,elephant,bw,7768_cl_dnn_bw_elephant_40_n02504013_2594.JPEG
alexnet,7,89,NaN,elephant,elephant,bw,7769_cl_dnn_bw_elephant_40_n02504013_7530.JPEG
alexnet,7,90,NaN,bird,elephant,bw,7770_cl_dnn_bw_elephant_40_n02504458_5992.JPEG
alexnet,7,91,NaN,elephant,elephant,bw,7771_cl_dnn_bw_elephant_40_n02504458_5853.JPEG
alexnet,7,92,NaN,elephant,elephant,bw,7772_cl_dnn_bw_elephant_40_n02504013_3295.JPEG
alexnet,7,93,NaN,elephant,elephant,bw,7773_cl_dnn_bw_elephant_40_n02504458_1969.JPEG
alexnet,7,94,NaN,elephant,elephant,bw,7774_cl_dnn_bw_elephant_40_n02504013_2208.JPEG
alexnet,7,95,NaN,elephant,elephant,bw,7775_cl_dnn_bw_elephant_40_n02504013_2146.JPEG
alexnet,7,96,NaN,elephant,elephant,bw,7776_cl_dnn_bw_elephant_40_n02504013_2399.JPEG
alexnet,7,97,NaN,dog,elephant,bw,7777_cl_dnn_bw_elephant_40_n02504013_23548.JPEG
alexnet,7,98,NaN,elephant,elephant,bw,7778_cl_dnn_bw_elephant_40_n02504013_22174.JPEG
alexnet,7,99,NaN,cat,elephant,bw,7779_cl_dnn_bw_elephant_40_n02504013_3433.JPEG
alexnet,7,100,NaN,elephant,elephant,bw,7780_cl_dnn_bw_elephant_40_n02504013_6314.JPEG
alexnet,7,101,NaN,elephant,elephant,bw,7781_cl_dnn_bw_elephant_40_n02504013_6857.JPEG
alexnet,7,102,NaN,elephant,elephant,bw,7782_cl_dnn_bw_elephant_40_n02504458_7200.JPEG
alexnet,7,103,NaN,elephant,elephant,bw,7783_cl_dnn_bw_elephant_40_n02504013_22131.JPEG
alexnet,7,104,NaN,elephant,elephant,bw,7784_cl_dnn_bw_elephant_40_n02504458_5386.JPEG
alexnet,7,105,NaN,elephant,elephant,bw,7785_cl_dnn_bw_elephant_40_n02504458_1489.JPEG
alexnet,7,106,NaN,dog,elephant,bw,7786_cl_dnn_bw_elephant_40_n02504013_6761.JPEG
alexnet,7,107,NaN,elephant,elephant,bw,7787_cl_dnn_bw_elephant_40_n02504458_10554.JPEG
alexnet,7,108,NaN,keyboard,elephant,bw,7788_cl_dnn_bw_elephant_40_n02504458_3988.JPEG
alexnet,7,109,NaN,elephant,elephant,bw,7789_cl_dnn_bw_elephant_40_n02504458_224.JPEG
alexnet,7,110,NaN,elephant,elephant,bw,7790_cl_dnn_bw_elephant_40_n02504013_6467.JPEG
alexnet,7,111,NaN,chair,elephant,bw,7791_cl_dnn_bw_elephant_40_n02504013_20027.JPEG
alexnet,7,112,NaN,elephant,elephant,bw,7792_cl_dnn_bw_elephant_40_n02504013_10898.JPEG
alexnet,7,113,NaN,elephant,elephant,bw,7793_cl_dnn_bw_elephant_40_n02504013_1720.JPEG
alexnet,7,114,NaN,elephant,elephant,bw,7794_cl_dnn_bw_elephant_40_n02504013_1577.JPEG
alexnet,7,115,NaN,elephant,elephant,bw,7795_cl_dnn_bw_elephant_40_n02504458_2324.JPEG
alexnet,7,116,NaN,elephant,elephant,bw,7796_cl_dnn_bw_elephant_40_n02504458_5851.JPEG
alexnet,7,117,NaN,elephant,elephant,bw,7797_cl_dnn_bw_elephant_40_n02504013_2125.JPEG
alexnet,7,118,NaN,elephant,elephant,bw,7798_cl_dnn_bw_elephant_40_n02504458_3175.JPEG
alexnet,7,119,NaN,elephant,elephant,bw,7799_cl_dnn_bw_elephant_40_n02504458_7842.JPEG
alexnet,7,120,NaN,elephant,elephant,bw,7800_cl_dnn_bw_elephant_40_n02504458_349.JPEG
alexnet,7,121,NaN,bicycle,bicycle,bw,7801_cl_dnn_bw_bicycle_40_n03792782_50904.JPEG
alexnet,7,122,NaN,bicycle,bicycle,bw,7802_cl_dnn_bw_bicycle_40_n02835271_1476.JPEG
alexnet,7,123,NaN,dog,bicycle,bw,7803_cl_dnn_bw_bicycle_40_n03792782_42586.JPEG
alexnet,7,124,NaN,bicycle,bicycle,bw,7804_cl_dnn_bw_bicycle_40_n03792782_30962.JPEG
alexnet,7,125,NaN,bicycle,bicycle,bw,7805_cl_dnn_bw_bicycle_40_n03792782_1108.JPEG
alexnet,7,126,NaN,bicycle,bicycle,bw,7806_cl_dnn_bw_bicycle_40_n02835271_20975.JPEG
alexnet,7,127,NaN,chair,bicycle,bw,7807_cl_dnn_bw_bicycle_40_n03792782_11417.JPEG
alexnet,7,128,NaN,chair,bicycle,bw,7808_cl_dnn_bw_bicycle_40_n02835271_23244.JPEG
alexnet,7,129,NaN,bicycle,bicycle,bw,7809_cl_dnn_bw_bicycle_40_n03792782_16911.JPEG
alexnet,7,130,NaN,bicycle,bicycle,bw,7810_cl_dnn_bw_bicycle_40_n03792782_24838.JPEG
alexnet,7,131,NaN,bicycle,bicycle,bw,7811_cl_dnn_bw_bicycle_40_n02835271_24104.JPEG
alexnet,7,132,NaN,bicycle,bicycle,bw,7812_cl_dnn_bw_bicycle_40_n02835271_9262.JPEG
alexnet,7,133,NaN,bicycle,bicycle,bw,7813_cl_dnn_bw_bicycle_40_n02835271_4654.JPEG
alexnet,7,134,NaN,bicycle,bicycle,bw,7814_cl_dnn_bw_bicycle_40_n02835271_4542.JPEG
alexnet,7,135,NaN,bicycle,bicycle,bw,7815_cl_dnn_bw_bicycle_40_n03792782_19267.JPEG
alexnet,7,136,NaN,bicycle,bicycle,bw,7816_cl_dnn_bw_bicycle_40_n03792782_27435.JPEG
alexnet,7,137,NaN,bicycle,bicycle,bw,7817_cl_dnn_bw_bicycle_40_n02835271_4887.JPEG
alexnet,7,138,NaN,bicycle,bicycle,bw,7818_cl_dnn_bw_bicycle_40_n03792782_33167.JPEG
alexnet,7,139,NaN,bicycle,bicycle,bw,7819_cl_dnn_bw_bicycle_40_n02835271_22956.JPEG
alexnet,7,140,NaN,bicycle,bicycle,bw,7820_cl_dnn_bw_bicycle_40_n02835271_1309.JPEG
alexnet,7,141,NaN,bicycle,bicycle,bw,7821_cl_dnn_bw_bicycle_40_n02835271_7280.JPEG
alexnet,7,142,NaN,bicycle,bicycle,bw,7822_cl_dnn_bw_bicycle_40_n02835271_4797.JPEG
alexnet,7,143,NaN,bicycle,bicycle,bw,7823_cl_dnn_bw_bicycle_40_n03792782_63413.JPEG
alexnet,7,144,NaN,bicycle,bicycle,bw,7824_cl_dnn_bw_bicycle_40_n03792782_360.JPEG
alexnet,7,145,NaN,bicycle,bicycle,bw,7825_cl_dnn_bw_bicycle_40_n03792782_38596.JPEG
alexnet,7,146,NaN,bicycle,bicycle,bw,7826_cl_dnn_bw_bicycle_40_n03792782_15459.JPEG
alexnet,7,147,NaN,bicycle,bicycle,bw,7827_cl_dnn_bw_bicycle_40_n02835271_26139.JPEG
alexnet,7,148,NaN,bicycle,bicycle,bw,7828_cl_dnn_bw_bicycle_40_n03792782_1432.JPEG
alexnet,7,149,NaN,bicycle,bicycle,bw,7829_cl_dnn_bw_bicycle_40_n03792782_5629.JPEG
alexnet,7,150,NaN,bicycle,bicycle,bw,7830_cl_dnn_bw_bicycle_40_n02835271_974.JPEG
alexnet,7,151,NaN,bicycle,bicycle,bw,7831_cl_dnn_bw_bicycle_40_n02835271_8601.JPEG
alexnet,7,152,NaN,bicycle,bicycle,bw,7832_cl_dnn_bw_bicycle_40_n02835271_13328.JPEG
alexnet,7,153,NaN,bicycle,bicycle,bw,7833_cl_dnn_bw_bicycle_40_n03792782_12561.JPEG
alexnet,7,154,NaN,bicycle,bicycle,bw,7834_cl_dnn_bw_bicycle_40_n02835271_3989.JPEG
alexnet,7,155,NaN,truck,bicycle,bw,7835_cl_dnn_bw_bicycle_40_n03792782_6926.JPEG
alexnet,7,156,NaN,bicycle,bicycle,bw,7836_cl_dnn_bw_bicycle_40_n03792782_11824.JPEG
alexnet,7,157,NaN,dog,bicycle,bw,7837_cl_dnn_bw_bicycle_40_n03792782_5201.JPEG
alexnet,7,158,NaN,bicycle,bicycle,bw,7838_cl_dnn_bw_bicycle_40_n03792782_38849.JPEG
alexnet,7,159,NaN,bicycle,bicycle,bw,7839_cl_dnn_bw_bicycle_40_n02835271_23711.JPEG
alexnet,7,160,NaN,bicycle,bicycle,bw,7840_cl_dnn_bw_bicycle_40_n03792782_975.JPEG
alexnet,7,161,NaN,airplane,airplane,bw,7841_cl_dnn_bw_airplane_40_n02690373_4202.JPEG
alexnet,7,162,NaN,airplane,airplane,bw,7842_cl_dnn_bw_airplane_40_n02690373_4754.JPEG
alexnet,7,163,NaN,airplane,airplane,bw,7843_cl_dnn_bw_airplane_40_n02690373_5961.JPEG
alexnet,7,164,NaN,airplane,airplane,bw,7844_cl_dnn_bw_airplane_40_n02690373_5007.JPEG
alexnet,7,165,NaN,dog,airplane,bw,7845_cl_dnn_bw_airplane_40_n02690373_1418.JPEG
alexnet,7,166,NaN,airplane,airplane,bw,7846_cl_dnn_bw_airplane_40_n02690373_3383.JPEG
alexnet,7,167,NaN,airplane,airplane,bw,7847_cl_dnn_bw_airplane_40_n02690373_10044.JPEG
alexnet,7,168,NaN,airplane,airplane,bw,7848_cl_dnn_bw_airplane_40_n02690373_8746.JPEG
alexnet,7,169,NaN,airplane,airplane,bw,7849_cl_dnn_bw_airplane_40_n02690373_19107.JPEG
alexnet,7,170,NaN,airplane,airplane,bw,7850_cl_dnn_bw_airplane_40_n02690373_3818.JPEG
alexnet,7,171,NaN,airplane,airplane,bw,7851_cl_dnn_bw_airplane_40_n02690373_2733.JPEG
alexnet,7,172,NaN,airplane,airplane,bw,7852_cl_dnn_bw_airplane_40_n02690373_2569.JPEG
alexnet,7,173,NaN,airplane,airplane,bw,7853_cl_dnn_bw_airplane_40_n02690373_8560.JPEG
alexnet,7,174,NaN,airplane,airplane,bw,7854_cl_dnn_bw_airplane_40_n02690373_1119.JPEG
alexnet,7,175,NaN,airplane,airplane,bw,7855_cl_dnn_bw_airplane_40_n02690373_5917.JPEG
alexnet,7,176,NaN,airplane,airplane,bw,7856_cl_dnn_bw_airplane_40_n02690373_6231.JPEG
alexnet,7,177,NaN,airplane,airplane,bw,7857_cl_dnn_bw_airplane_40_n02690373_20326.JPEG
alexnet,7,178,NaN,airplane,airplane,bw,7858_cl_dnn_bw_airplane_40_n02690373_17937.JPEG
alexnet,7,179,NaN,airplane,airplane,bw,7859_cl_dnn_bw_airplane_40_n02690373_8791.JPEG
alexnet,7,180,NaN,airplane,airplane,bw,7860_cl_dnn_bw_airplane_40_n02690373_5693.JPEG
alexnet,7,181,NaN,airplane,airplane,bw,7861_cl_dnn_bw_airplane_40_n02690373_18295.JPEG
alexnet,7,182,NaN,airplane,airplane,bw,7862_cl_dnn_bw_airplane_40_n02690373_1235.JPEG
alexnet,7,183,NaN,airplane,airplane,bw,7863_cl_dnn_bw_airplane_40_n02690373_3313.JPEG
alexnet,7,184,NaN,airplane,airplane,bw,7864_cl_dnn_bw_airplane_40_n02690373_3032.JPEG
alexnet,7,185,NaN,clock,airplane,bw,7865_cl_dnn_bw_airplane_40_n02690373_3272.JPEG
alexnet,7,186,NaN,airplane,airplane,bw,7866_cl_dnn_bw_airplane_40_n02690373_3493.JPEG
alexnet,7,187,NaN,airplane,airplane,bw,7867_cl_dnn_bw_airplane_40_n02690373_2629.JPEG
alexnet,7,188,NaN,keyboard,airplane,bw,7868_cl_dnn_bw_airplane_40_n02690373_10481.JPEG
alexnet,7,189,NaN,airplane,airplane,bw,7869_cl_dnn_bw_airplane_40_n02690373_2935.JPEG
alexnet,7,190,NaN,airplane,airplane,bw,7870_cl_dnn_bw_airplane_40_n02690373_5528.JPEG
alexnet,7,191,NaN,airplane,airplane,bw,7871_cl_dnn_bw_airplane_40_n02690373_4706.JPEG
alexnet,7,192,NaN,airplane,airplane,bw,7872_cl_dnn_bw_airplane_40_n02690373_3639.JPEG
alexnet,7,193,NaN,airplane,airplane,bw,7873_cl_dnn_bw_airplane_40_n02690373_6465.JPEG
alexnet,7,194,NaN,truck,airplane,bw,7874_cl_dnn_bw_airplane_40_n02690373_2967.JPEG
alexnet,7,195,NaN,airplane,airplane,bw,7875_cl_dnn_bw_airplane_40_n02690373_8641.JPEG
alexnet,7,196,NaN,airplane,airplane,bw,7876_cl_dnn_bw_airplane_40_n02690373_883.JPEG
alexnet,7,197,NaN,airplane,airplane,bw,7877_cl_dnn_bw_airplane_40_n02690373_3859.JPEG
alexnet,7,198,NaN,airplane,airplane,bw,7878_cl_dnn_bw_airplane_40_n02690373_6887.JPEG
alexnet,7,199,NaN,airplane,airplane,bw,7879_cl_dnn_bw_airplane_40_n02690373_6674.JPEG
alexnet,7,200,NaN,airplane,airplane,bw,7880_cl_dnn_bw_airplane_40_n02690373_13283.JPEG
alexnet,7,201,NaN,clock,clock,bw,7881_cl_dnn_bw_clock_40_n03196217_6289.JPEG
alexnet,7,202,NaN,clock,clock,bw,7882_cl_dnn_bw_clock_40_n04548280_6394.JPEG
alexnet,7,203,NaN,keyboard,clock,bw,7883_cl_dnn_bw_clock_40_n02708093_8325.JPEG
alexnet,7,204,NaN,clock,clock,bw,7884_cl_dnn_bw_clock_40_n04548280_5237.JPEG
alexnet,7,205,NaN,clock,clock,bw,7885_cl_dnn_bw_clock_40_n03196217_1430.JPEG
alexnet,7,206,NaN,clock,clock,bw,7886_cl_dnn_bw_clock_40_n03196217_1962.JPEG
alexnet,7,207,NaN,clock,clock,bw,7887_cl_dnn_bw_clock_40_n03196217_6112.JPEG
alexnet,7,208,NaN,bottle,clock,bw,7888_cl_dnn_bw_clock_40_n02708093_1242.JPEG
alexnet,7,209,NaN,clock,clock,bw,7889_cl_dnn_bw_clock_40_n03196217_3735.JPEG
alexnet,7,210,NaN,clock,clock,bw,7890_cl_dnn_bw_clock_40_n04548280_5032.JPEG
alexnet,7,211,NaN,clock,clock,bw,7891_cl_dnn_bw_clock_40_n02708093_3468.JPEG
alexnet,7,212,NaN,clock,clock,bw,7892_cl_dnn_bw_clock_40_n03196217_1256.JPEG
alexnet,7,213,NaN,keyboard,clock,bw,7893_cl_dnn_bw_clock_40_n03196217_3994.JPEG
alexnet,7,214,NaN,clock,clock,bw,7894_cl_dnn_bw_clock_40_n04548280_821.JPEG
alexnet,7,215,NaN,clock,clock,bw,7895_cl_dnn_bw_clock_40_n02708093_2875.JPEG
alexnet,7,216,NaN,clock,clock,bw,7896_cl_dnn_bw_clock_40_n03196217_359.JPEG
alexnet,7,217,NaN,clock,clock,bw,7897_cl_dnn_bw_clock_40_n03196217_3475.JPEG
alexnet,7,218,NaN,clock,clock,bw,7898_cl_dnn_bw_clock_40_n04548280_2717.JPEG
alexnet,7,219,NaN,clock,clock,bw,7899_cl_dnn_bw_clock_40_n04548280_1239.JPEG
alexnet,7,220,NaN,clock,clock,bw,7900_cl_dnn_bw_clock_40_n04548280_7978.JPEG
alexnet,7,221,NaN,clock,clock,bw,7901_cl_dnn_bw_clock_40_n02708093_8388.JPEG
alexnet,7,222,NaN,clock,clock,bw,7902_cl_dnn_bw_clock_40_n02708093_7883.JPEG
alexnet,7,223,NaN,clock,clock,bw,7903_cl_dnn_bw_clock_40_n04548280_4738.JPEG
alexnet,7,224,NaN,clock,clock,bw,7904_cl_dnn_bw_clock_40_n04548280_9533.JPEG
alexnet,7,225,NaN,clock,clock,bw,7905_cl_dnn_bw_clock_40_n04548280_503.JPEG
alexnet,7,226,NaN,clock,clock,bw,7906_cl_dnn_bw_clock_40_n02708093_1975.JPEG
alexnet,7,227,NaN,clock,clock,bw,7907_cl_dnn_bw_clock_40_n02708093_527.JPEG
alexnet,7,228,NaN,clock,clock,bw,7908_cl_dnn_bw_clock_40_n03196217_6948.JPEG
alexnet,7,229,NaN,clock,clock,bw,7909_cl_dnn_bw_clock_40_n03196217_8254.JPEG
alexnet,7,230,NaN,clock,clock,bw,7910_cl_dnn_bw_clock_40_n04548280_2710.JPEG
alexnet,7,231,NaN,clock,clock,bw,7911_cl_dnn_bw_clock_40_n03196217_2442.JPEG
alexnet,7,232,NaN,clock,clock,bw,7912_cl_dnn_bw_clock_40_n02708093_3019.JPEG
alexnet,7,233,NaN,clock,clock,bw,7913_cl_dnn_bw_clock_40_n04548280_3072.JPEG
alexnet,7,234,NaN,clock,clock,bw,7914_cl_dnn_bw_clock_40_n04548280_117.JPEG
alexnet,7,235,NaN,clock,clock,bw,7915_cl_dnn_bw_clock_40_n02708093_8073.JPEG
alexnet,7,236,NaN,clock,clock,bw,7916_cl_dnn_bw_clock_40_n04548280_2404.JPEG
alexnet,7,237,NaN,clock,clock,bw,7917_cl_dnn_bw_clock_40_n03196217_1180.JPEG
alexnet,7,238,NaN,clock,clock,bw,7918_cl_dnn_bw_clock_40_n04548280_1893.JPEG
alexnet,7,239,NaN,clock,clock,bw,7919_cl_dnn_bw_clock_40_n03196217_11614.JPEG
alexnet,7,240,NaN,clock,clock,bw,7920_cl_dnn_bw_clock_40_n03196217_837.JPEG
alexnet,7,241,NaN,keyboard,oven,bw,7921_cl_dnn_bw_oven_40_n04111531_6024.JPEG
alexnet,7,242,NaN,oven,oven,bw,7922_cl_dnn_bw_oven_40_n04111531_5241.JPEG
alexnet,7,243,NaN,oven,oven,bw,7923_cl_dnn_bw_oven_40_n04111531_23340.JPEG
alexnet,7,244,NaN,keyboard,oven,bw,7924_cl_dnn_bw_oven_40_n04111531_283.JPEG
alexnet,7,245,NaN,oven,oven,bw,7925_cl_dnn_bw_oven_40_n04111531_9344.JPEG
alexnet,7,246,NaN,chair,oven,bw,7926_cl_dnn_bw_oven_40_n04111531_1612.JPEG
alexnet,7,247,NaN,oven,oven,bw,7927_cl_dnn_bw_oven_40_n04111531_9822.JPEG
alexnet,7,248,NaN,oven,oven,bw,7928_cl_dnn_bw_oven_40_n04111531_605.JPEG
alexnet,7,249,NaN,bottle,oven,bw,7929_cl_dnn_bw_oven_40_n04111531_1750.JPEG
alexnet,7,250,NaN,oven,oven,bw,7930_cl_dnn_bw_oven_40_n04111531_409.JPEG
alexnet,7,251,NaN,oven,oven,bw,7931_cl_dnn_bw_oven_40_n04111531_9174.JPEG
alexnet,7,252,NaN,oven,oven,bw,7932_cl_dnn_bw_oven_40_n04111531_13354.JPEG
alexnet,7,253,NaN,oven,oven,bw,7933_cl_dnn_bw_oven_40_n04111531_6500.JPEG
alexnet,7,254,NaN,oven,oven,bw,7934_cl_dnn_bw_oven_40_n04111531_7910.JPEG
alexnet,7,255,NaN,oven,oven,bw,7935_cl_dnn_bw_oven_40_n04111531_15635.JPEG
alexnet,7,256,NaN,oven,oven,bw,7936_cl_dnn_bw_oven_40_n04111531_1220.JPEG
alexnet,7,257,NaN,chair,oven,bw,7937_cl_dnn_bw_oven_40_n04111531_17045.JPEG
alexnet,7,258,NaN,oven,oven,bw,7938_cl_dnn_bw_oven_40_n04111531_4998.JPEG
alexnet,7,259,NaN,dog,oven,bw,7939_cl_dnn_bw_oven_40_n04111531_9041.JPEG
alexnet,7,260,NaN,oven,oven,bw,7940_cl_dnn_bw_oven_40_n04111531_2433.JPEG
alexnet,7,261,NaN,oven,oven,bw,7941_cl_dnn_bw_oven_40_n04111531_8984.JPEG
alexnet,7,262,NaN,oven,oven,bw,7942_cl_dnn_bw_oven_40_n04111531_2207.JPEG
alexnet,7,263,NaN,oven,oven,bw,7943_cl_dnn_bw_oven_40_n04111531_9411.JPEG
alexnet,7,264,NaN,oven,oven,bw,7944_cl_dnn_bw_oven_40_n04111531_774.JPEG
alexnet,7,265,NaN,bottle,oven,bw,7945_cl_dnn_bw_oven_40_n04111531_22327.JPEG
alexnet,7,266,NaN,oven,oven,bw,7946_cl_dnn_bw_oven_40_n04111531_9455.JPEG
alexnet,7,267,NaN,oven,oven,bw,7947_cl_dnn_bw_oven_40_n04111531_16670.JPEG
alexnet,7,268,NaN,oven,oven,bw,7948_cl_dnn_bw_oven_40_n04111531_9210.JPEG
alexnet,7,269,NaN,oven,oven,bw,7949_cl_dnn_bw_oven_40_n04111531_13479.JPEG
alexnet,7,270,NaN,oven,oven,bw,7950_cl_dnn_bw_oven_40_n04111531_10336.JPEG
alexnet,7,271,NaN,oven,oven,bw,7951_cl_dnn_bw_oven_40_n04111531_15087.JPEG
alexnet,7,272,NaN,truck,oven,bw,7952_cl_dnn_bw_oven_40_n04111531_3470.JPEG
alexnet,7,273,NaN,oven,oven,bw,7953_cl_dnn_bw_oven_40_n04111531_1770.JPEG
alexnet,7,274,NaN,oven,oven,bw,7954_cl_dnn_bw_oven_40_n04111531_2796.JPEG
alexnet,7,275,NaN,oven,oven,bw,7955_cl_dnn_bw_oven_40_n04111531_6412.JPEG
alexnet,7,276,NaN,oven,oven,bw,7956_cl_dnn_bw_oven_40_n04111531_6810.JPEG
alexnet,7,277,NaN,oven,oven,bw,7957_cl_dnn_bw_oven_40_n04111531_23668.JPEG
alexnet,7,278,NaN,oven,oven,bw,7958_cl_dnn_bw_oven_40_n04111531_4155.JPEG
alexnet,7,279,NaN,oven,oven,bw,7959_cl_dnn_bw_oven_40_n04111531_7862.JPEG
alexnet,7,280,NaN,oven,oven,bw,7960_cl_dnn_bw_oven_40_n04111531_8793.JPEG
alexnet,7,281,NaN,chair,chair,bw,7961_cl_dnn_bw_chair_40_n04099969_31718.JPEG
alexnet,7,282,NaN,chair,chair,bw,7962_cl_dnn_bw_chair_40_n04099969_18220.JPEG
alexnet,7,283,NaN,chair,chair,bw,7963_cl_dnn_bw_chair_40_n04099969_5746.JPEG
alexnet,7,284,NaN,chair,chair,bw,7964_cl_dnn_bw_chair_40_n02791124_15754.JPEG
alexnet,7,285,NaN,chair,chair,bw,7965_cl_dnn_bw_chair_40_n02791124_2699.JPEG
alexnet,7,286,NaN,chair,chair,bw,7966_cl_dnn_bw_chair_40_n02791124_3240.JPEG
alexnet,7,287,NaN,chair,chair,bw,7967_cl_dnn_bw_chair_40_n03376595_16321.JPEG
alexnet,7,288,NaN,chair,chair,bw,7968_cl_dnn_bw_chair_40_n04099969_4053.JPEG
alexnet,7,289,NaN,chair,chair,bw,7969_cl_dnn_bw_chair_40_n03376595_17704.JPEG
alexnet,7,290,NaN,chair,chair,bw,7970_cl_dnn_bw_chair_40_n03376595_2419.JPEG
alexnet,7,291,NaN,chair,chair,bw,7971_cl_dnn_bw_chair_40_n04429376_20716.JPEG
alexnet,7,292,NaN,chair,chair,bw,7972_cl_dnn_bw_chair_40_n04429376_7287.JPEG
alexnet,7,293,NaN,chair,chair,bw,7973_cl_dnn_bw_chair_40_n04429376_27637.JPEG
alexnet,7,294,NaN,clock,chair,bw,7974_cl_dnn_bw_chair_40_n04099969_1293.JPEG
alexnet,7,295,NaN,chair,chair,bw,7975_cl_dnn_bw_chair_40_n04099969_3485.JPEG
alexnet,7,296,NaN,chair,chair,bw,7976_cl_dnn_bw_chair_40_n04429376_21424.JPEG
alexnet,7,297,NaN,chair,chair,bw,7977_cl_dnn_bw_chair_40_n02791124_5592.JPEG
alexnet,7,298,NaN,chair,chair,bw,7978_cl_dnn_bw_chair_40_n04099969_19530.JPEG
alexnet,7,299,NaN,chair,chair,bw,7979_cl_dnn_bw_chair_40_n03376595_2404.JPEG
alexnet,7,300,NaN,chair,chair,bw,7980_cl_dnn_bw_chair_40_n02791124_6673.JPEG
alexnet,7,301,NaN,chair,chair,bw,7981_cl_dnn_bw_chair_40_n04099969_24224.JPEG
alexnet,7,302,NaN,chair,chair,bw,7982_cl_dnn_bw_chair_40_n02791124_8866.JPEG
alexnet,7,303,NaN,chair,chair,bw,7983_cl_dnn_bw_chair_40_n04429376_5965.JPEG
alexnet,7,304,NaN,chair,chair,bw,7984_cl_dnn_bw_chair_40_n02791124_17001.JPEG
alexnet,7,305,NaN,chair,chair,bw,7985_cl_dnn_bw_chair_40_n03376595_13544.JPEG
alexnet,7,306,NaN,chair,chair,bw,7986_cl_dnn_bw_chair_40_n03376595_489.JPEG
alexnet,7,307,NaN,chair,chair,bw,7987_cl_dnn_bw_chair_40_n04429376_5238.JPEG
alexnet,7,308,NaN,chair,chair,bw,7988_cl_dnn_bw_chair_40_n03376595_1770.JPEG
alexnet,7,309,NaN,chair,chair,bw,7989_cl_dnn_bw_chair_40_n02791124_3037.JPEG
alexnet,7,310,NaN,chair,chair,bw,7990_cl_dnn_bw_chair_40_n02791124_186.JPEG
alexnet,7,311,NaN,chair,chair,bw,7991_cl_dnn_bw_chair_40_n03376595_2368.JPEG
alexnet,7,312,NaN,chair,chair,bw,7992_cl_dnn_bw_chair_40_n04429376_30836.JPEG
alexnet,7,313,NaN,chair,chair,bw,7993_cl_dnn_bw_chair_40_n04099969_7632.JPEG
alexnet,7,314,NaN,chair,chair,bw,7994_cl_dnn_bw_chair_40_n03376595_9007.JPEG
alexnet,7,315,NaN,elephant,chair,bw,7995_cl_dnn_bw_chair_40_n02791124_643.JPEG
alexnet,7,316,NaN,chair,chair,bw,7996_cl_dnn_bw_chair_40_n04099969_3768.JPEG
alexnet,7,317,NaN,chair,chair,bw,7997_cl_dnn_bw_chair_40_n04429376_534.JPEG
alexnet,7,318,NaN,chair,chair,bw,7998_cl_dnn_bw_chair_40_n04099969_15854.JPEG
alexnet,7,319,NaN,chair,chair,bw,7999_cl_dnn_bw_chair_40_n02791124_15566.JPEG
alexnet,7,320,NaN,chair,chair,bw,8000_cl_dnn_bw_chair_40_n02791124_8970.JPEG
alexnet,7,321,NaN,bear,bear,bw,8001_cl_dnn_bw_bear_40_n02133161_4192.JPEG
alexnet,7,322,NaN,bear,bear,bw,8002_cl_dnn_bw_bear_40_n02134084_23227.JPEG
alexnet,7,323,NaN,bear,bear,bw,8003_cl_dnn_bw_bear_40_n02134084_3177.JPEG
alexnet,7,324,NaN,bear,bear,bw,8004_cl_dnn_bw_bear_40_n02134084_2376.JPEG
alexnet,7,325,NaN,bear,bear,bw,8005_cl_dnn_bw_bear_40_n02134084_4859.JPEG
alexnet,7,326,NaN,bear,bear,bw,8006_cl_dnn_bw_bear_40_n02132136_3621.JPEG
alexnet,7,327,NaN,dog,bear,bw,8007_cl_dnn_bw_bear_40_n02134418_704.JPEG
alexnet,7,328,NaN,bear,bear,bw,8008_cl_dnn_bw_bear_40_n02133161_676.JPEG
alexnet,7,329,NaN,bear,bear,bw,8009_cl_dnn_bw_bear_40_n02132136_699.JPEG
alexnet,7,330,NaN,dog,bear,bw,8010_cl_dnn_bw_bear_40_n02134418_3598.JPEG
alexnet,7,331,NaN,bear,bear,bw,8011_cl_dnn_bw_bear_40_n02134418_11204.JPEG
alexnet,7,332,NaN,bear,bear,bw,8012_cl_dnn_bw_bear_40_n02134418_2936.JPEG
alexnet,7,333,NaN,bear,bear,bw,8013_cl_dnn_bw_bear_40_n02134084_7424.JPEG
alexnet,7,334,NaN,bear,bear,bw,8014_cl_dnn_bw_bear_40_n02134084_7288.JPEG
alexnet,7,335,NaN,elephant,bear,bw,8015_cl_dnn_bw_bear_40_n02134418_2175.JPEG
alexnet,7,336,NaN,bear,bear,bw,8016_cl_dnn_bw_bear_40_n02133161_1872.JPEG
alexnet,7,337,NaN,bear,bear,bw,8017_cl_dnn_bw_bear_40_n02134418_5139.JPEG
alexnet,7,338,NaN,bear,bear,bw,8018_cl_dnn_bw_bear_40_n02134418_3767.JPEG
alexnet,7,339,NaN,bear,bear,bw,8019_cl_dnn_bw_bear_40_n02134418_1646.JPEG
alexnet,7,340,NaN,bear,bear,bw,8020_cl_dnn_bw_bear_40_n02133161_5128.JPEG
alexnet,7,341,NaN,bear,bear,bw,8021_cl_dnn_bw_bear_40_n02134084_1867.JPEG
alexnet,7,342,NaN,bear,bear,bw,8022_cl_dnn_bw_bear_40_n02134084_15764.JPEG
alexnet,7,343,NaN,bear,bear,bw,8023_cl_dnn_bw_bear_40_n02132136_6890.JPEG
alexnet,7,344,NaN,bear,bear,bw,8024_cl_dnn_bw_bear_40_n02133161_4185.JPEG
alexnet,7,345,NaN,bear,bear,bw,8025_cl_dnn_bw_bear_40_n02134084_2740.JPEG
alexnet,7,346,NaN,bear,bear,bw,8026_cl_dnn_bw_bear_40_n02133161_1660.JPEG
alexnet,7,347,NaN,bear,bear,bw,8027_cl_dnn_bw_bear_40_n02134084_4247.JPEG
alexnet,7,348,NaN,elephant,bear,bw,8028_cl_dnn_bw_bear_40_n02132136_8504.JPEG
alexnet,7,349,NaN,bear,bear,bw,8029_cl_dnn_bw_bear_40_n02134084_883.JPEG
alexnet,7,350,NaN,bear,bear,bw,8030_cl_dnn_bw_bear_40_n02134084_20068.JPEG
alexnet,7,351,NaN,bear,bear,bw,8031_cl_dnn_bw_bear_40_n02134084_2328.JPEG
alexnet,7,352,NaN,bear,bear,bw,8032_cl_dnn_bw_bear_40_n02134418_819.JPEG
alexnet,7,353,NaN,bear,bear,bw,8033_cl_dnn_bw_bear_40_n02132136_3968.JPEG
alexnet,7,354,NaN,dog,bear,bw,8034_cl_dnn_bw_bear_40_n02132136_6967.JPEG
alexnet,7,355,NaN,bear,bear,bw,8035_cl_dnn_bw_bear_40_n02133161_9827.JPEG
alexnet,7,356,NaN,bear,bear,bw,8036_cl_dnn_bw_bear_40_n02134418_6224.JPEG
alexnet,7,357,NaN,dog,bear,bw,8037_cl_dnn_bw_bear_40_n02132136_2881.JPEG
alexnet,7,358,NaN,dog,bear,bw,8038_cl_dnn_bw_bear_40_n02134084_1028.JPEG
alexnet,7,359,NaN,bear,bear,bw,8039_cl_dnn_bw_bear_40_n02133161_9672.JPEG
alexnet,7,360,NaN,bear,bear,bw,8040_cl_dnn_bw_bear_40_n02134418_13691.JPEG
alexnet,7,361,NaN,chair,boat,bw,8041_cl_dnn_bw_boat_40_n02951358_11607.JPEG
alexnet,7,362,NaN,boat,boat,bw,8042_cl_dnn_bw_boat_40_n03662601_1197.JPEG
alexnet,7,363,NaN,boat,boat,bw,8043_cl_dnn_bw_boat_40_n04612504_20927.JPEG
alexnet,7,364,NaN,boat,boat,bw,8044_cl_dnn_bw_boat_40_n03662601_14034.JPEG
alexnet,7,365,NaN,boat,boat,bw,8045_cl_dnn_bw_boat_40_n04273569_7417.JPEG
alexnet,7,366,NaN,boat,boat,bw,8046_cl_dnn_bw_boat_40_n03344393_8470.JPEG
alexnet,7,367,NaN,boat,boat,bw,8047_cl_dnn_bw_boat_40_n03344393_1822.JPEG
alexnet,7,368,NaN,boat,boat,bw,8048_cl_dnn_bw_boat_40_n03662601_4064.JPEG
alexnet,7,369,NaN,boat,boat,bw,8049_cl_dnn_bw_boat_40_n04612504_18954.JPEG
alexnet,7,370,NaN,boat,boat,bw,8050_cl_dnn_bw_boat_40_n03344393_6420.JPEG
alexnet,7,371,NaN,boat,boat,bw,8051_cl_dnn_bw_boat_40_n04273569_14846.JPEG
alexnet,7,372,NaN,boat,boat,bw,8052_cl_dnn_bw_boat_40_n02951358_13507.JPEG
alexnet,7,373,NaN,boat,boat,bw,8053_cl_dnn_bw_boat_40_n03344393_3517.JPEG
alexnet,7,374,NaN,bird,boat,bw,8054_cl_dnn_bw_boat_40_n02951358_34966.JPEG
alexnet,7,375,NaN,boat,boat,bw,8055_cl_dnn_bw_boat_40_n04612504_17663.JPEG
alexnet,7,376,NaN,boat,boat,bw,8056_cl_dnn_bw_boat_40_n03662601_8485.JPEG
alexnet,7,377,NaN,boat,boat,bw,8057_cl_dnn_bw_boat_40_n02951358_3481.JPEG
alexnet,7,378,NaN,boat,boat,bw,8058_cl_dnn_bw_boat_40_n03662601_4433.JPEG
alexnet,7,379,NaN,boat,boat,bw,8059_cl_dnn_bw_boat_40_n03662601_19809.JPEG
alexnet,7,380,NaN,boat,boat,bw,8060_cl_dnn_bw_boat_40_n02951358_5471.JPEG
alexnet,7,381,NaN,boat,boat,bw,8061_cl_dnn_bw_boat_40_n04273569_7296.JPEG
alexnet,7,382,NaN,boat,boat,bw,8062_cl_dnn_bw_boat_40_n03344393_7805.JPEG
alexnet,7,383,NaN,bottle,boat,bw,8063_cl_dnn_bw_boat_40_n02951358_22293.JPEG
alexnet,7,384,NaN,boat,boat,bw,8064_cl_dnn_bw_boat_40_n03344393_1396.JPEG
alexnet,7,385,NaN,boat,boat,bw,8065_cl_dnn_bw_boat_40_n03662601_11770.JPEG
alexnet,7,386,NaN,boat,boat,bw,8066_cl_dnn_bw_boat_40_n04273569_5672.JPEG
alexnet,7,387,NaN,boat,boat,bw,8067_cl_dnn_bw_boat_40_n02951358_4887.JPEG
alexnet,7,388,NaN,boat,boat,bw,8068_cl_dnn_bw_boat_40_n03344393_11308.JPEG
alexnet,7,389,NaN,chair,boat,bw,8069_cl_dnn_bw_boat_40_n03662601_3930.JPEG
alexnet,7,390,NaN,boat,boat,bw,8070_cl_dnn_bw_boat_40_n02951358_2971.JPEG
alexnet,7,391,NaN,boat,boat,bw,8071_cl_dnn_bw_boat_40_n03662601_6221.JPEG
alexnet,7,392,NaN,boat,boat,bw,8072_cl_dnn_bw_boat_40_n04612504_2951.JPEG
alexnet,7,393,NaN,boat,boat,bw,8073_cl_dnn_bw_boat_40_n04612504_6933.JPEG
alexnet,7,394,NaN,boat,boat,bw,8074_cl_dnn_bw_boat_40_n04612504_11949.JPEG
alexnet,7,395,NaN,boat,boat,bw,8075_cl_dnn_bw_boat_40_n04612504_13668.JPEG
alexnet,7,396,NaN,boat,boat,bw,8076_cl_dnn_bw_boat_40_n04612504_15163.JPEG
alexnet,7,397,NaN,boat,boat,bw,8077_cl_dnn_bw_boat_40_n02951358_734.JPEG
alexnet,7,398,NaN,boat,boat,bw,8078_cl_dnn_bw_boat_40_n04273569_20463.JPEG
alexnet,7,399,NaN,boat,boat,bw,8079_cl_dnn_bw_boat_40_n03662601_6725.JPEG
alexnet,7,400,NaN,dog,boat,bw,8080_cl_dnn_bw_boat_40_n03662601_12426.JPEG
alexnet,7,401,NaN,cat,cat,bw,8081_cl_dnn_bw_cat_40_n02123159_1091.JPEG
alexnet,7,402,NaN,cat,cat,bw,8082_cl_dnn_bw_cat_40_n02123597_3822.JPEG
alexnet,7,403,NaN,dog,cat,bw,8083_cl_dnn_bw_cat_40_n02123159_1657.JPEG
alexnet,7,404,NaN,cat,cat,bw,8084_cl_dnn_bw_cat_40_n02123045_8934.JPEG
alexnet,7,405,NaN,cat,cat,bw,8085_cl_dnn_bw_cat_40_n02123597_4335.JPEG
alexnet,7,406,NaN,cat,cat,bw,8086_cl_dnn_bw_cat_40_n02124075_2671.JPEG
alexnet,7,407,NaN,cat,cat,bw,8087_cl_dnn_bw_cat_40_n02125311_45119.JPEG
alexnet,7,408,NaN,cat,cat,bw,8088_cl_dnn_bw_cat_40_n02124075_11473.JPEG
alexnet,7,409,NaN,cat,cat,bw,8089_cl_dnn_bw_cat_40_n02123597_482.JPEG
alexnet,7,410,NaN,cat,cat,bw,8090_cl_dnn_bw_cat_40_n02125311_6585.JPEG
alexnet,7,411,NaN,cat,cat,bw,8091_cl_dnn_bw_cat_40_n02123597_18525.JPEG
alexnet,7,412,NaN,cat,cat,bw,8092_cl_dnn_bw_cat_40_n02124075_10518.JPEG
alexnet,7,413,NaN,cat,cat,bw,8093_cl_dnn_bw_cat_40_n02123045_13151.JPEG
alexnet,7,414,NaN,cat,cat,bw,8094_cl_dnn_bw_cat_40_n02125311_28138.JPEG
alexnet,7,415,NaN,cat,cat,bw,8095_cl_dnn_bw_cat_40_n02124075_8621.JPEG
alexnet,7,416,NaN,cat,cat,bw,8096_cl_dnn_bw_cat_40_n02123394_1477.JPEG
alexnet,7,417,NaN,cat,cat,bw,8097_cl_dnn_bw_cat_40_n02123159_257.JPEG
alexnet,7,418,NaN,cat,cat,bw,8098_cl_dnn_bw_cat_40_n02123159_1339.JPEG
alexnet,7,419,NaN,cat,cat,bw,8099_cl_dnn_bw_cat_40_n02123597_8010.JPEG
alexnet,7,420,NaN,cat,cat,bw,8100_cl_dnn_bw_cat_40_n02124075_10148.JPEG
alexnet,7,421,NaN,cat,cat,bw,8101_cl_dnn_bw_cat_40_n02123394_3143.JPEG
alexnet,7,422,NaN,cat,cat,bw,8102_cl_dnn_bw_cat_40_n02124075_3333.JPEG
alexnet,7,423,NaN,cat,cat,bw,8103_cl_dnn_bw_cat_40_n02124075_17464.JPEG
alexnet,7,424,NaN,cat,cat,bw,8104_cl_dnn_bw_cat_40_n02123045_17001.JPEG
alexnet,7,425,NaN,cat,cat,bw,8105_cl_dnn_bw_cat_40_n02124075_8400.JPEG
alexnet,7,426,NaN,cat,cat,bw,8106_cl_dnn_bw_cat_40_n02123394_652.JPEG
alexnet,7,427,NaN,cat,cat,bw,8107_cl_dnn_bw_cat_40_n02123045_2758.JPEG
alexnet,7,428,NaN,dog,cat,bw,8108_cl_dnn_bw_cat_40_n02124075_9189.JPEG
alexnet,7,429,NaN,cat,cat,bw,8109_cl_dnn_bw_cat_40_n02123597_8337.JPEG
alexnet,7,430,NaN,cat,cat,bw,8110_cl_dnn_bw_cat_40_n02123045_7764.JPEG
alexnet,7,431,NaN,cat,cat,bw,8111_cl_dnn_bw_cat_40_n02123045_5775.JPEG
alexnet,7,432,NaN,cat,cat,bw,8112_cl_dnn_bw_cat_40_n02125311_60133.JPEG
alexnet,7,433,NaN,cat,cat,bw,8113_cl_dnn_bw_cat_40_n02125311_22784.JPEG
alexnet,7,434,NaN,dog,cat,bw,8114_cl_dnn_bw_cat_40_n02123159_6558.JPEG
alexnet,7,435,NaN,dog,cat,bw,8115_cl_dnn_bw_cat_40_n02123159_5325.JPEG
alexnet,7,436,NaN,cat,cat,bw,8116_cl_dnn_bw_cat_40_n02123394_4374.JPEG
alexnet,7,437,NaN,oven,cat,bw,8117_cl_dnn_bw_cat_40_n02123597_12585.JPEG
alexnet,7,438,NaN,dog,cat,bw,8118_cl_dnn_bw_cat_40_n02123045_5973.JPEG
alexnet,7,439,NaN,cat,cat,bw,8119_cl_dnn_bw_cat_40_n02123159_1837.JPEG
alexnet,7,440,NaN,cat,cat,bw,8120_cl_dnn_bw_cat_40_n02123597_2542.JPEG
alexnet,7,441,NaN,bottle,bottle,bw,8121_cl_dnn_bw_bottle_40_n04560804_7992.JPEG
alexnet,7,442,NaN,bottle,bottle,bw,8122_cl_dnn_bw_bottle_40_n03983396_11506.JPEG
alexnet,7,443,NaN,bottle,bottle,bw,8123_cl_dnn_bw_bottle_40_n04579145_4393.JPEG
alexnet,7,444,NaN,bottle,bottle,bw,8124_cl_dnn_bw_bottle_40_n04591713_4323.JPEG
alexnet,7,445,NaN,bottle,bottle,bw,8125_cl_dnn_bw_bottle_40_n04591713_5851.JPEG
alexnet,7,446,NaN,bottle,bottle,bw,8126_cl_dnn_bw_bottle_40_n04557648_5239.JPEG
alexnet,7,447,NaN,bottle,bottle,bw,8127_cl_dnn_bw_bottle_40_n03983396_22287.JPEG
alexnet,7,448,NaN,bottle,bottle,bw,8128_cl_dnn_bw_bottle_40_n04579145_2214.JPEG
alexnet,7,449,NaN,bottle,bottle,bw,8129_cl_dnn_bw_bottle_40_n04579145_406.JPEG
alexnet,7,450,NaN,bottle,bottle,bw,8130_cl_dnn_bw_bottle_40_n02823428_10612.JPEG
alexnet,7,451,NaN,bottle,bottle,bw,8131_cl_dnn_bw_bottle_40_n03983396_5641.JPEG
alexnet,7,452,NaN,bottle,bottle,bw,8132_cl_dnn_bw_bottle_40_n04557648_1530.JPEG
alexnet,7,453,NaN,bottle,bottle,bw,8133_cl_dnn_bw_bottle_40_n03937543_3408.JPEG
alexnet,7,454,NaN,bird,bottle,bw,8134_cl_dnn_bw_bottle_40_n04557648_6987.JPEG
alexnet,7,455,NaN,clock,bottle,bw,8135_cl_dnn_bw_bottle_40_n04557648_1360.JPEG
alexnet,7,456,NaN,bottle,bottle,bw,8136_cl_dnn_bw_bottle_40_n04591713_6067.JPEG
alexnet,7,457,NaN,bottle,bottle,bw,8137_cl_dnn_bw_bottle_40_n04557648_3766.JPEG
alexnet,7,458,NaN,bottle,bottle,bw,8138_cl_dnn_bw_bottle_40_n02823428_2355.JPEG
alexnet,7,459,NaN,chair,bottle,bw,8139_cl_dnn_bw_bottle_40_n04557648_3251.JPEG
alexnet,7,460,NaN,bottle,bottle,bw,8140_cl_dnn_bw_bottle_40_n03937543_2033.JPEG
alexnet,7,461,NaN,chair,bottle,bw,8141_cl_dnn_bw_bottle_40_n03937543_2039.JPEG
alexnet,7,462,NaN,bottle,bottle,bw,8142_cl_dnn_bw_bottle_40_n03983396_12561.JPEG
alexnet,7,463,NaN,bottle,bottle,bw,8143_cl_dnn_bw_bottle_40_n04557648_988.JPEG
alexnet,7,464,NaN,clock,bottle,bw,8144_cl_dnn_bw_bottle_40_n04591713_1935.JPEG
alexnet,7,465,NaN,truck,bottle,bw,8145_cl_dnn_bw_bottle_40_n04560804_15696.JPEG
alexnet,7,466,NaN,bottle,bottle,bw,8146_cl_dnn_bw_bottle_40_n03937543_751.JPEG
alexnet,7,467,NaN,bottle,bottle,bw,8147_cl_dnn_bw_bottle_40_n04560804_16346.JPEG
alexnet,7,468,NaN,bottle,bottle,bw,8148_cl_dnn_bw_bottle_40_n04591713_19432.JPEG
alexnet,7,469,NaN,bottle,bottle,bw,8149_cl_dnn_bw_bottle_40_n04557648_7130.JPEG
alexnet,7,470,NaN,bottle,bottle,bw,8150_cl_dnn_bw_bottle_40_n04560804_2651.JPEG
alexnet,7,471,NaN,bottle,bottle,bw,8151_cl_dnn_bw_bottle_40_n02823428_5825.JPEG
alexnet,7,472,NaN,bottle,bottle,bw,8152_cl_dnn_bw_bottle_40_n02823428_3570.JPEG
alexnet,7,473,NaN,bottle,bottle,bw,8153_cl_dnn_bw_bottle_40_n02823428_6788.JPEG
alexnet,7,474,NaN,bottle,bottle,bw,8154_cl_dnn_bw_bottle_40_n03983396_1209.JPEG
alexnet,7,475,NaN,bottle,bottle,bw,8155_cl_dnn_bw_bottle_40_n04579145_450.JPEG
alexnet,7,476,NaN,bottle,bottle,bw,8156_cl_dnn_bw_bottle_40_n04560804_6506.JPEG
alexnet,7,477,NaN,bottle,bottle,bw,8157_cl_dnn_bw_bottle_40_n04591713_261.JPEG
alexnet,7,478,NaN,bottle,bottle,bw,8158_cl_dnn_bw_bottle_40_n04560804_3130.JPEG
alexnet,7,479,NaN,bottle,bottle,bw,8159_cl_dnn_bw_bottle_40_n03983396_9347.JPEG
alexnet,7,480,NaN,bottle,bottle,bw,8160_cl_dnn_bw_bottle_40_n04560804_2099.JPEG
alexnet,7,481,NaN,truck,truck,bw,8161_cl_dnn_bw_truck_40_n04467665_37811.JPEG
alexnet,7,482,NaN,truck,truck,bw,8162_cl_dnn_bw_truck_40_n04467665_9266.JPEG
alexnet,7,483,NaN,truck,truck,bw,8163_cl_dnn_bw_truck_40_n03796401_5058.JPEG
alexnet,7,484,NaN,truck,truck,bw,8164_cl_dnn_bw_truck_40_n04467665_71055.JPEG
alexnet,7,485,NaN,truck,truck,bw,8165_cl_dnn_bw_truck_40_n03417042_10744.JPEG
alexnet,7,486,NaN,truck,truck,bw,8166_cl_dnn_bw_truck_40_n03417042_16389.JPEG
alexnet,7,487,NaN,truck,truck,bw,8167_cl_dnn_bw_truck_40_n03796401_3411.JPEG
alexnet,7,488,NaN,dog,truck,bw,8168_cl_dnn_bw_truck_40_n03796401_124.JPEG
alexnet,7,489,NaN,truck,truck,bw,8169_cl_dnn_bw_truck_40_n03796401_4073.JPEG
alexnet,7,490,NaN,truck,truck,bw,8170_cl_dnn_bw_truck_40_n03417042_8145.JPEG
alexnet,7,491,NaN,truck,truck,bw,8171_cl_dnn_bw_truck_40_n04467665_40886.JPEG
alexnet,7,492,NaN,truck,truck,bw,8172_cl_dnn_bw_truck_40_n03796401_5035.JPEG
alexnet,7,493,NaN,truck,truck,bw,8173_cl_dnn_bw_truck_40_n04467665_28313.JPEG
alexnet,7,494,NaN,truck,truck,bw,8174_cl_dnn_bw_truck_40_n03796401_7527.JPEG
alexnet,7,495,NaN,truck,truck,bw,8175_cl_dnn_bw_truck_40_n03796401_4121.JPEG
alexnet,7,496,NaN,truck,truck,bw,8176_cl_dnn_bw_truck_40_n04467665_22697.JPEG
alexnet,7,497,NaN,truck,truck,bw,8177_cl_dnn_bw_truck_40_n03417042_27335.JPEG
alexnet,7,498,NaN,truck,truck,bw,8178_cl_dnn_bw_truck_40_n03417042_7187.JPEG
alexnet,7,499,NaN,truck,truck,bw,8179_cl_dnn_bw_truck_40_n03417042_3307.JPEG
alexnet,7,500,NaN,truck,truck,bw,8180_cl_dnn_bw_truck_40_n03417042_11.JPEG
alexnet,7,501,NaN,truck,truck,bw,8181_cl_dnn_bw_truck_40_n03796401_27514.JPEG
alexnet,7,502,NaN,truck,truck,bw,8182_cl_dnn_bw_truck_40_n03417042_11611.JPEG
alexnet,7,503,NaN,truck,truck,bw,8183_cl_dnn_bw_truck_40_n03417042_18116.JPEG
alexnet,7,504,NaN,bottle,truck,bw,8184_cl_dnn_bw_truck_40_n04467665_45796.JPEG
alexnet,7,505,NaN,truck,truck,bw,8185_cl_dnn_bw_truck_40_n03417042_3508.JPEG
alexnet,7,506,NaN,truck,truck,bw,8186_cl_dnn_bw_truck_40_n03417042_4552.JPEG
alexnet,7,507,NaN,truck,truck,bw,8187_cl_dnn_bw_truck_40_n04467665_23847.JPEG
alexnet,7,508,NaN,truck,truck,bw,8188_cl_dnn_bw_truck_40_n03417042_19479.JPEG
alexnet,7,509,NaN,airplane,truck,bw,8189_cl_dnn_bw_truck_40_n04467665_1719.JPEG
alexnet,7,510,NaN,truck,truck,bw,8190_cl_dnn_bw_truck_40_n03417042_91.JPEG
alexnet,7,511,NaN,truck,truck,bw,8191_cl_dnn_bw_truck_40_n04467665_55499.JPEG
alexnet,7,512,NaN,truck,truck,bw,8192_cl_dnn_bw_truck_40_n03796401_3695.JPEG
alexnet,7,513,NaN,chair,truck,bw,8193_cl_dnn_bw_truck_40_n03417042_15485.JPEG
alexnet,7,514,NaN,truck,truck,bw,8194_cl_dnn_bw_truck_40_n03796401_15240.JPEG
alexnet,7,515,NaN,truck,truck,bw,8195_cl_dnn_bw_truck_40_n04467665_36621.JPEG
alexnet,7,516,NaN,truck,truck,bw,8196_cl_dnn_bw_truck_40_n03796401_11473.JPEG
alexnet,7,517,NaN,truck,truck,bw,8197_cl_dnn_bw_truck_40_n03417042_3288.JPEG
alexnet,7,518,NaN,truck,truck,bw,8198_cl_dnn_bw_truck_40_n04467665_10122.JPEG
alexnet,7,519,NaN,truck,truck,bw,8199_cl_dnn_bw_truck_40_n03417042_1790.JPEG
alexnet,7,520,NaN,truck,truck,bw,8200_cl_dnn_bw_truck_40_n03417042_6410.JPEG
alexnet,7,521,NaN,car,car,bw,8201_cl_dnn_bw_car_40_n04285008_3763.JPEG
alexnet,7,522,NaN,car,car,bw,8202_cl_dnn_bw_car_40_n03100240_1137.JPEG
alexnet,7,523,NaN,car,car,bw,8203_cl_dnn_bw_car_40_n03100240_9412.JPEG
alexnet,7,524,NaN,truck,car,bw,8204_cl_dnn_bw_car_40_n02814533_7290.JPEG
alexnet,7,525,NaN,car,car,bw,8205_cl_dnn_bw_car_40_n04285008_15119.JPEG
alexnet,7,526,NaN,car,car,bw,8206_cl_dnn_bw_car_40_n04285008_9512.JPEG
alexnet,7,527,NaN,car,car,bw,8207_cl_dnn_bw_car_40_n04285008_6343.JPEG
alexnet,7,528,NaN,car,car,bw,8208_cl_dnn_bw_car_40_n04285008_15191.JPEG
alexnet,7,529,NaN,car,car,bw,8209_cl_dnn_bw_car_40_n03100240_17029.JPEG
alexnet,7,530,NaN,car,car,bw,8210_cl_dnn_bw_car_40_n02814533_31493.JPEG
alexnet,7,531,NaN,car,car,bw,8211_cl_dnn_bw_car_40_n03100240_16310.JPEG
alexnet,7,532,NaN,car,car,bw,8212_cl_dnn_bw_car_40_n03100240_53.JPEG
alexnet,7,533,NaN,car,car,bw,8213_cl_dnn_bw_car_40_n04285008_6855.JPEG
alexnet,7,534,NaN,car,car,bw,8214_cl_dnn_bw_car_40_n04285008_17056.JPEG
alexnet,7,535,NaN,car,car,bw,8215_cl_dnn_bw_car_40_n04285008_3922.JPEG
alexnet,7,536,NaN,car,car,bw,8216_cl_dnn_bw_car_40_n02814533_23926.JPEG
alexnet,7,537,NaN,car,car,bw,8217_cl_dnn_bw_car_40_n03100240_2907.JPEG
alexnet,7,538,NaN,car,car,bw,8218_cl_dnn_bw_car_40_n03100240_6205.JPEG
alexnet,7,539,NaN,car,car,bw,8219_cl_dnn_bw_car_40_n03100240_13763.JPEG
alexnet,7,540,NaN,car,car,bw,8220_cl_dnn_bw_car_40_n03100240_14426.JPEG
alexnet,7,541,NaN,car,car,bw,8221_cl_dnn_bw_car_40_n03100240_12659.JPEG
alexnet,7,542,NaN,car,car,bw,8222_cl_dnn_bw_car_40_n02814533_42453.JPEG
alexnet,7,543,NaN,car,car,bw,8223_cl_dnn_bw_car_40_n03100240_5865.JPEG
alexnet,7,544,NaN,car,car,bw,8224_cl_dnn_bw_car_40_n03100240_9425.JPEG
alexnet,7,545,NaN,car,car,bw,8225_cl_dnn_bw_car_40_n02814533_35798.JPEG
alexnet,7,546,NaN,car,car,bw,8226_cl_dnn_bw_car_40_n02814533_79974.JPEG
alexnet,7,547,NaN,car,car,bw,8227_cl_dnn_bw_car_40_n02814533_95785.JPEG
alexnet,7,548,NaN,car,car,bw,8228_cl_dnn_bw_car_40_n04285008_16282.JPEG
alexnet,7,549,NaN,car,car,bw,8229_cl_dnn_bw_car_40_n04285008_7917.JPEG
alexnet,7,550,NaN,car,car,bw,8230_cl_dnn_bw_car_40_n03100240_966.JPEG
alexnet,7,551,NaN,truck,car,bw,8231_cl_dnn_bw_car_40_n04285008_1949.JPEG
alexnet,7,552,NaN,car,car,bw,8232_cl_dnn_bw_car_40_n02814533_46875.JPEG
alexnet,7,553,NaN,car,car,bw,8233_cl_dnn_bw_car_40_n02814533_45853.JPEG
alexnet,7,554,NaN,car,car,bw,8234_cl_dnn_bw_car_40_n02814533_40350.JPEG
alexnet,7,555,NaN,car,car,bw,8235_cl_dnn_bw_car_40_n03100240_12336.JPEG
alexnet,7,556,NaN,car,car,bw,8236_cl_dnn_bw_car_40_n03100240_7568.JPEG
alexnet,7,557,NaN,car,car,bw,8237_cl_dnn_bw_car_40_n04285008_7062.JPEG
alexnet,7,558,NaN,car,car,bw,8238_cl_dnn_bw_car_40_n02814533_84130.JPEG
alexnet,7,559,NaN,car,car,bw,8239_cl_dnn_bw_car_40_n03100240_6613.JPEG
alexnet,7,560,NaN,truck,car,bw,8240_cl_dnn_bw_car_40_n02814533_25986.JPEG
alexnet,7,561,NaN,bird,bird,bw,8241_cl_dnn_bw_bird_40_n01531178_22301.JPEG
alexnet,7,562,NaN,bird,bird,bw,8242_cl_dnn_bw_bird_40_n02027492_1603.JPEG
alexnet,7,563,NaN,bird,bird,bw,8243_cl_dnn_bw_bird_40_n01514859_1447.JPEG
alexnet,7,564,NaN,dog,bird,bw,8244_cl_dnn_bw_bird_40_n01592084_8927.JPEG
alexnet,7,565,NaN,bird,bird,bw,8245_cl_dnn_bw_bird_40_n01817953_2940.JPEG
alexnet,7,566,NaN,bird,bird,bw,8246_cl_dnn_bw_bird_40_n01616318_26436.JPEG
alexnet,7,567,NaN,dog,bird,bw,8247_cl_dnn_bw_bird_40_n02007558_367.JPEG
alexnet,7,568,NaN,bird,bird,bw,8248_cl_dnn_bw_bird_40_n02025239_199.JPEG
alexnet,7,569,NaN,bird,bird,bw,8249_cl_dnn_bw_bird_40_n02027492_183.JPEG
alexnet,7,570,NaN,bird,bird,bw,8250_cl_dnn_bw_bird_40_n01592084_7377.JPEG
alexnet,7,571,NaN,bird,bird,bw,8251_cl_dnn_bw_bird_40_n02027492_5853.JPEG
alexnet,7,572,NaN,bird,bird,bw,8252_cl_dnn_bw_bird_40_n02013706_5078.JPEG
alexnet,7,573,NaN,bird,bird,bw,8253_cl_dnn_bw_bird_40_n01592084_607.JPEG
alexnet,7,574,NaN,bird,bird,bw,8254_cl_dnn_bw_bird_40_n02033041_11660.JPEG
alexnet,7,575,NaN,bird,bird,bw,8255_cl_dnn_bw_bird_40_n02009912_3137.JPEG
alexnet,7,576,NaN,bear,bird,bw,8256_cl_dnn_bw_bird_40_n02033041_2055.JPEG
alexnet,7,577,NaN,bird,bird,bw,8257_cl_dnn_bw_bird_40_n01819313_10156.JPEG
alexnet,7,578,NaN,bird,bird,bw,8258_cl_dnn_bw_bird_40_n01843383_11674.JPEG
alexnet,7,579,NaN,bird,bird,bw,8259_cl_dnn_bw_bird_40_n01829413_8634.JPEG
alexnet,7,580,NaN,bird,bird,bw,8260_cl_dnn_bw_bird_40_n01560419_4411.JPEG
alexnet,7,581,NaN,bird,bird,bw,8261_cl_dnn_bw_bird_40_n01530575_7926.JPEG
alexnet,7,582,NaN,bird,bird,bw,8262_cl_dnn_bw_bird_40_n01531178_26115.JPEG
alexnet,7,583,NaN,bird,bird,bw,8263_cl_dnn_bw_bird_40_n01601694_1873.JPEG
alexnet,7,584,NaN,bird,bird,bw,8264_cl_dnn_bw_bird_40_n01614925_3444.JPEG
alexnet,7,585,NaN,bird,bird,bw,8265_cl_dnn_bw_bird_40_n02002556_3620.JPEG
alexnet,7,586,NaN,bird,bird,bw,8266_cl_dnn_bw_bird_40_n01843383_7675.JPEG
alexnet,7,587,NaN,bird,bird,bw,8267_cl_dnn_bw_bird_40_n01833805_9091.JPEG
alexnet,7,588,NaN,bird,bird,bw,8268_cl_dnn_bw_bird_40_n01614925_15274.JPEG
alexnet,7,589,NaN,bird,bird,bw,8269_cl_dnn_bw_bird_40_n02025239_7351.JPEG
alexnet,7,590,NaN,bird,bird,bw,8270_cl_dnn_bw_bird_40_n02056570_1151.JPEG
alexnet,7,591,NaN,bird,bird,bw,8271_cl_dnn_bw_bird_40_n02013706_7168.JPEG
alexnet,7,592,NaN,bird,bird,bw,8272_cl_dnn_bw_bird_40_n01833805_13320.JPEG
alexnet,7,593,NaN,bird,bird,bw,8273_cl_dnn_bw_bird_40_n01616318_8329.JPEG
alexnet,7,594,NaN,boat,bird,bw,8274_cl_dnn_bw_bird_40_n01531178_16716.JPEG
alexnet,7,595,NaN,bird,bird,bw,8275_cl_dnn_bw_bird_40_n01534433_4614.JPEG
alexnet,7,596,NaN,bird,bird,bw,8276_cl_dnn_bw_bird_40_n01592084_522.JPEG
alexnet,7,597,NaN,bird,bird,bw,8277_cl_dnn_bw_bird_40_n01537544_4907.JPEG
alexnet,7,598,NaN,bird,bird,bw,8278_cl_dnn_bw_bird_40_n01817953_5387.JPEG
alexnet,7,599,NaN,bird,bird,bw,8279_cl_dnn_bw_bird_40_n02009229_17331.JPEG
alexnet,7,600,NaN,bird,bird,bw,8280_cl_dnn_bw_bird_40_n01532829_21166.JPEG
alexnet,7,601,NaN,dog,dog,bw,8281_cl_dnn_bw_dog_40_n02113624_243.JPEG
alexnet,7,602,NaN,dog,dog,bw,8282_cl_dnn_bw_dog_40_n02112350_6104.JPEG
alexnet,7,603,NaN,dog,dog,bw,8283_cl_dnn_bw_dog_40_n02108915_5152.JPEG
alexnet,7,604,NaN,dog,dog,bw,8284_cl_dnn_bw_dog_40_n02088632_2216.JPEG
alexnet,7,605,NaN,dog,dog,bw,8285_cl_dnn_bw_dog_40_n02105855_5608.JPEG
alexnet,7,606,NaN,dog,dog,bw,8286_cl_dnn_bw_dog_40_n02087046_1520.JPEG
alexnet,7,607,NaN,dog,dog,bw,8287_cl_dnn_bw_dog_40_n02086646_4220.JPEG
alexnet,7,608,NaN,dog,dog,bw,8288_cl_dnn_bw_dog_40_n02093859_8.JPEG
alexnet,7,609,NaN,dog,dog,bw,8289_cl_dnn_bw_dog_40_n02109047_17690.JPEG
alexnet,7,610,NaN,dog,dog,bw,8290_cl_dnn_bw_dog_40_n02101556_3140.JPEG
alexnet,7,611,NaN,dog,dog,bw,8291_cl_dnn_bw_dog_40_n02091635_6388.JPEG
alexnet,7,612,NaN,dog,dog,bw,8292_cl_dnn_bw_dog_40_n02105056_10489.JPEG
alexnet,7,613,NaN,dog,dog,bw,8293_cl_dnn_bw_dog_40_n02097658_980.JPEG
alexnet,7,614,NaN,dog,dog,bw,8294_cl_dnn_bw_dog_40_n02099849_963.JPEG
alexnet,7,615,NaN,dog,dog,bw,8295_cl_dnn_bw_dog_40_n02085936_1515.JPEG
alexnet,7,616,NaN,dog,dog,bw,8296_cl_dnn_bw_dog_40_n02106030_10877.JPEG
alexnet,7,617,NaN,dog,dog,bw,8297_cl_dnn_bw_dog_40_n02093647_7472.JPEG
alexnet,7,618,NaN,dog,dog,bw,8298_cl_dnn_bw_dog_40_n02088238_9015.JPEG
alexnet,7,619,NaN,dog,dog,bw,8299_cl_dnn_bw_dog_40_n02086079_7068.JPEG
alexnet,7,620,NaN,dog,dog,bw,8300_cl_dnn_bw_dog_40_n02093256_3305.JPEG
alexnet,7,621,NaN,dog,dog,bw,8301_cl_dnn_bw_dog_40_n02090721_4722.JPEG
alexnet,7,622,NaN,dog,dog,bw,8302_cl_dnn_bw_dog_40_n02099712_8049.JPEG
alexnet,7,623,NaN,dog,dog,bw,8303_cl_dnn_bw_dog_40_n02096294_6870.JPEG
alexnet,7,624,NaN,dog,dog,bw,8304_cl_dnn_bw_dog_40_n02112706_108.JPEG
alexnet,7,625,NaN,dog,dog,bw,8305_cl_dnn_bw_dog_40_n02088632_6617.JPEG
alexnet,7,626,NaN,dog,dog,bw,8306_cl_dnn_bw_dog_40_n02108915_1243.JPEG
alexnet,7,627,NaN,dog,dog,bw,8307_cl_dnn_bw_dog_40_n02098105_3908.JPEG
alexnet,7,628,NaN,dog,dog,bw,8308_cl_dnn_bw_dog_40_n02106550_11760.JPEG
alexnet,7,629,NaN,dog,dog,bw,8309_cl_dnn_bw_dog_40_n02086910_7280.JPEG
alexnet,7,630,NaN,dog,dog,bw,8310_cl_dnn_bw_dog_40_n02105056_15056.JPEG
alexnet,7,631,NaN,dog,dog,bw,8311_cl_dnn_bw_dog_40_n02091032_866.JPEG
alexnet,7,632,NaN,dog,dog,bw,8312_cl_dnn_bw_dog_40_n02100583_5303.JPEG
alexnet,7,633,NaN,dog,dog,bw,8313_cl_dnn_bw_dog_40_n02113023_2317.JPEG
alexnet,7,634,NaN,dog,dog,bw,8314_cl_dnn_bw_dog_40_n02108915_311.JPEG
alexnet,7,635,NaN,dog,dog,bw,8315_cl_dnn_bw_dog_40_n02086646_3172.JPEG
alexnet,7,636,NaN,dog,dog,bw,8316_cl_dnn_bw_dog_40_n02112706_2867.JPEG
alexnet,7,637,NaN,dog,dog,bw,8317_cl_dnn_bw_dog_40_n02096294_7051.JPEG
alexnet,7,638,NaN,dog,dog,bw,8318_cl_dnn_bw_dog_40_n02086240_8153.JPEG
alexnet,7,639,NaN,dog,dog,bw,8319_cl_dnn_bw_dog_40_n02110185_14845.JPEG
alexnet,7,640,NaN,dog,dog,bw,8320_cl_dnn_bw_dog_40_n02112350_4876.JPEG
alexnet,7,641,NaN,knife,knife,cr,8321_cl_dnn_cr_knife_40_n03041632_24384.JPEG
alexnet,7,642,NaN,knife,knife,cr,8322_cl_dnn_cr_knife_40_n03041632_39840.JPEG
alexnet,7,643,NaN,knife,knife,cr,8323_cl_dnn_cr_knife_40_n03041632_28135.JPEG
alexnet,7,644,NaN,bird,knife,cr,8324_cl_dnn_cr_knife_40_n03041632_11327.JPEG
alexnet,7,645,NaN,bottle,knife,cr,8325_cl_dnn_cr_knife_40_n03041632_22738.JPEG
alexnet,7,646,NaN,knife,knife,cr,8326_cl_dnn_cr_knife_40_n03041632_6309.JPEG
alexnet,7,647,NaN,knife,knife,cr,8327_cl_dnn_cr_knife_40_n03041632_33198.JPEG
alexnet,7,648,NaN,bottle,knife,cr,8328_cl_dnn_cr_knife_40_n03041632_1964.JPEG
alexnet,7,649,NaN,knife,knife,cr,8329_cl_dnn_cr_knife_40_n03041632_40530.JPEG
alexnet,7,650,NaN,knife,knife,cr,8330_cl_dnn_cr_knife_40_n03041632_54603.JPEG
alexnet,7,651,NaN,chair,knife,cr,8331_cl_dnn_cr_knife_40_n03041632_99912.JPEG
alexnet,7,652,NaN,knife,knife,cr,8332_cl_dnn_cr_knife_40_n03041632_23129.JPEG
alexnet,7,653,NaN,knife,knife,cr,8333_cl_dnn_cr_knife_40_n03041632_24228.JPEG
alexnet,7,654,NaN,knife,knife,cr,8334_cl_dnn_cr_knife_40_n03041632_33584.JPEG
alexnet,7,655,NaN,dog,knife,cr,8335_cl_dnn_cr_knife_40_n03041632_90125.JPEG
alexnet,7,656,NaN,knife,knife,cr,8336_cl_dnn_cr_knife_40_n03041632_101810.JPEG
alexnet,7,657,NaN,knife,knife,cr,8337_cl_dnn_cr_knife_40_n03041632_362.JPEG
alexnet,7,658,NaN,knife,knife,cr,8338_cl_dnn_cr_knife_40_n03041632_18959.JPEG
alexnet,7,659,NaN,knife,knife,cr,8339_cl_dnn_cr_knife_40_n03041632_12949.JPEG
alexnet,7,660,NaN,knife,knife,cr,8340_cl_dnn_cr_knife_40_n03041632_932.JPEG
alexnet,7,661,NaN,knife,knife,cr,8341_cl_dnn_cr_knife_40_n03041632_17820.JPEG
alexnet,7,662,NaN,knife,knife,cr,8342_cl_dnn_cr_knife_40_n03041632_30602.JPEG
alexnet,7,663,NaN,cat,knife,cr,8343_cl_dnn_cr_knife_40_n03041632_44238.JPEG
alexnet,7,664,NaN,knife,knife,cr,8344_cl_dnn_cr_knife_40_n03041632_7982.JPEG
alexnet,7,665,NaN,knife,knife,cr,8345_cl_dnn_cr_knife_40_n03041632_44230.JPEG
alexnet,7,666,NaN,knife,knife,cr,8346_cl_dnn_cr_knife_40_n03041632_39342.JPEG
alexnet,7,667,NaN,knife,knife,cr,8347_cl_dnn_cr_knife_40_n03041632_4260.JPEG
alexnet,7,668,NaN,knife,knife,cr,8348_cl_dnn_cr_knife_40_n03041632_1671.JPEG
alexnet,7,669,NaN,knife,knife,cr,8349_cl_dnn_cr_knife_40_n03041632_42185.JPEG
alexnet,7,670,NaN,knife,knife,cr,8350_cl_dnn_cr_knife_40_n03041632_86251.JPEG
alexnet,7,671,NaN,knife,knife,cr,8351_cl_dnn_cr_knife_40_n03041632_27929.JPEG
alexnet,7,672,NaN,knife,knife,cr,8352_cl_dnn_cr_knife_40_n03041632_38996.JPEG
alexnet,7,673,NaN,knife,knife,cr,8353_cl_dnn_cr_knife_40_n03041632_4057.JPEG
alexnet,7,674,NaN,knife,knife,cr,8354_cl_dnn_cr_knife_40_n03041632_28710.JPEG
alexnet,7,675,NaN,knife,knife,cr,8355_cl_dnn_cr_knife_40_n03041632_3023.JPEG
alexnet,7,676,NaN,dog,knife,cr,8356_cl_dnn_cr_knife_40_n03041632_105080.JPEG
alexnet,7,677,NaN,knife,knife,cr,8357_cl_dnn_cr_knife_40_n03041632_6446.JPEG
alexnet,7,678,NaN,knife,knife,cr,8358_cl_dnn_cr_knife_40_n03041632_83472.JPEG
alexnet,7,679,NaN,knife,knife,cr,8359_cl_dnn_cr_knife_40_n03041632_14546.JPEG
alexnet,7,680,NaN,oven,knife,cr,8360_cl_dnn_cr_knife_40_n03041632_52040.JPEG
alexnet,7,681,NaN,keyboard,keyboard,cr,8361_cl_dnn_cr_keyboard_40_n04505470_3957.JPEG
alexnet,7,682,NaN,keyboard,keyboard,cr,8362_cl_dnn_cr_keyboard_40_n04505470_2737.JPEG
alexnet,7,683,NaN,keyboard,keyboard,cr,8363_cl_dnn_cr_keyboard_40_n04505470_2749.JPEG
alexnet,7,684,NaN,keyboard,keyboard,cr,8364_cl_dnn_cr_keyboard_40_n04505470_805.JPEG
alexnet,7,685,NaN,keyboard,keyboard,cr,8365_cl_dnn_cr_keyboard_40_n03085013_15597.JPEG
alexnet,7,686,NaN,keyboard,keyboard,cr,8366_cl_dnn_cr_keyboard_40_n04505470_3615.JPEG
alexnet,7,687,NaN,keyboard,keyboard,cr,8367_cl_dnn_cr_keyboard_40_n03085013_18214.JPEG
alexnet,7,688,NaN,keyboard,keyboard,cr,8368_cl_dnn_cr_keyboard_40_n04505470_2130.JPEG
alexnet,7,689,NaN,keyboard,keyboard,cr,8369_cl_dnn_cr_keyboard_40_n04505470_5062.JPEG
alexnet,7,690,NaN,keyboard,keyboard,cr,8370_cl_dnn_cr_keyboard_40_n04505470_3566.JPEG
alexnet,7,691,NaN,keyboard,keyboard,cr,8371_cl_dnn_cr_keyboard_40_n03085013_24408.JPEG
alexnet,7,692,NaN,keyboard,keyboard,cr,8372_cl_dnn_cr_keyboard_40_n04505470_9331.JPEG
alexnet,7,693,NaN,keyboard,keyboard,cr,8373_cl_dnn_cr_keyboard_40_n03085013_20492.JPEG
alexnet,7,694,NaN,keyboard,keyboard,cr,8374_cl_dnn_cr_keyboard_40_n04505470_4595.JPEG
alexnet,7,695,NaN,keyboard,keyboard,cr,8375_cl_dnn_cr_keyboard_40_n03085013_11359.JPEG
alexnet,7,696,NaN,dog,keyboard,cr,8376_cl_dnn_cr_keyboard_40_n04505470_4892.JPEG
alexnet,7,697,NaN,keyboard,keyboard,cr,8377_cl_dnn_cr_keyboard_40_n03085013_2853.JPEG
alexnet,7,698,NaN,bird,keyboard,cr,8378_cl_dnn_cr_keyboard_40_n03085013_1426.JPEG
alexnet,7,699,NaN,keyboard,keyboard,cr,8379_cl_dnn_cr_keyboard_40_n03085013_18925.JPEG
alexnet,7,700,NaN,keyboard,keyboard,cr,8380_cl_dnn_cr_keyboard_40_n04505470_4753.JPEG
alexnet,7,701,NaN,keyboard,keyboard,cr,8381_cl_dnn_cr_keyboard_40_n03085013_23782.JPEG
alexnet,7,702,NaN,clock,keyboard,cr,8382_cl_dnn_cr_keyboard_40_n03085013_19376.JPEG
alexnet,7,703,NaN,keyboard,keyboard,cr,8383_cl_dnn_cr_keyboard_40_n04505470_2679.JPEG
alexnet,7,704,NaN,keyboard,keyboard,cr,8384_cl_dnn_cr_keyboard_40_n04505470_4484.JPEG
alexnet,7,705,NaN,keyboard,keyboard,cr,8385_cl_dnn_cr_keyboard_40_n03085013_21048.JPEG
alexnet,7,706,NaN,keyboard,keyboard,cr,8386_cl_dnn_cr_keyboard_40_n03085013_17452.JPEG
alexnet,7,707,NaN,keyboard,keyboard,cr,8387_cl_dnn_cr_keyboard_40_n03085013_19880.JPEG
alexnet,7,708,NaN,keyboard,keyboard,cr,8388_cl_dnn_cr_keyboard_40_n03085013_16057.JPEG
alexnet,7,709,NaN,keyboard,keyboard,cr,8389_cl_dnn_cr_keyboard_40_n04505470_8386.JPEG
alexnet,7,710,NaN,keyboard,keyboard,cr,8390_cl_dnn_cr_keyboard_40_n04505470_1724.JPEG
alexnet,7,711,NaN,keyboard,keyboard,cr,8391_cl_dnn_cr_keyboard_40_n03085013_18763.JPEG
alexnet,7,712,NaN,keyboard,keyboard,cr,8392_cl_dnn_cr_keyboard_40_n04505470_3273.JPEG
alexnet,7,713,NaN,keyboard,keyboard,cr,8393_cl_dnn_cr_keyboard_40_n04505470_4513.JPEG
alexnet,7,714,NaN,keyboard,keyboard,cr,8394_cl_dnn_cr_keyboard_40_n03085013_19818.JPEG
alexnet,7,715,NaN,keyboard,keyboard,cr,8395_cl_dnn_cr_keyboard_40_n03085013_20462.JPEG
alexnet,7,716,NaN,keyboard,keyboard,cr,8396_cl_dnn_cr_keyboard_40_n04505470_4166.JPEG
alexnet,7,717,NaN,clock,keyboard,cr,8397_cl_dnn_cr_keyboard_40_n03085013_6038.JPEG
alexnet,7,718,NaN,keyboard,keyboard,cr,8398_cl_dnn_cr_keyboard_40_n04505470_5144.JPEG
alexnet,7,719,NaN,keyboard,keyboard,cr,8399_cl_dnn_cr_keyboard_40_n03085013_31266.JPEG
alexnet,7,720,NaN,keyboard,keyboard,cr,8400_cl_dnn_cr_keyboard_40_n03085013_21166.JPEG
alexnet,7,721,NaN,dog,elephant,cr,8401_cl_dnn_cr_elephant_40_n02504013_1454.JPEG
alexnet,7,722,NaN,elephant,elephant,cr,8402_cl_dnn_cr_elephant_40_n02504013_10351.JPEG
alexnet,7,723,NaN,elephant,elephant,cr,8403_cl_dnn_cr_elephant_40_n02504013_3872.JPEG
alexnet,7,724,NaN,elephant,elephant,cr,8404_cl_dnn_cr_elephant_40_n02504013_3473.JPEG
alexnet,7,725,NaN,elephant,elephant,cr,8405_cl_dnn_cr_elephant_40_n02504458_13100.JPEG
alexnet,7,726,NaN,elephant,elephant,cr,8406_cl_dnn_cr_elephant_40_n02504013_9153.JPEG
alexnet,7,727,NaN,elephant,elephant,cr,8407_cl_dnn_cr_elephant_40_n02504458_794.JPEG
alexnet,7,728,NaN,elephant,elephant,cr,8408_cl_dnn_cr_elephant_40_n02504458_1343.JPEG
alexnet,7,729,NaN,elephant,elephant,cr,8409_cl_dnn_cr_elephant_40_n02504013_1258.JPEG
alexnet,7,730,NaN,elephant,elephant,cr,8410_cl_dnn_cr_elephant_40_n02504458_2068.JPEG
alexnet,7,731,NaN,elephant,elephant,cr,8411_cl_dnn_cr_elephant_40_n02504458_326.JPEG
alexnet,7,732,NaN,elephant,elephant,cr,8412_cl_dnn_cr_elephant_40_n02504013_7885.JPEG
alexnet,7,733,NaN,elephant,elephant,cr,8413_cl_dnn_cr_elephant_40_n02504013_2600.JPEG
alexnet,7,734,NaN,elephant,elephant,cr,8414_cl_dnn_cr_elephant_40_n02504013_2924.JPEG
alexnet,7,735,NaN,elephant,elephant,cr,8415_cl_dnn_cr_elephant_40_n02504458_8957.JPEG
alexnet,7,736,NaN,elephant,elephant,cr,8416_cl_dnn_cr_elephant_40_n02504458_3689.JPEG
alexnet,7,737,NaN,elephant,elephant,cr,8417_cl_dnn_cr_elephant_40_n02504458_4345.JPEG
alexnet,7,738,NaN,elephant,elephant,cr,8418_cl_dnn_cr_elephant_40_n02504013_4536.JPEG
alexnet,7,739,NaN,elephant,elephant,cr,8419_cl_dnn_cr_elephant_40_n02504013_7611.JPEG
alexnet,7,740,NaN,elephant,elephant,cr,8420_cl_dnn_cr_elephant_40_n02504458_11324.JPEG
alexnet,7,741,NaN,elephant,elephant,cr,8421_cl_dnn_cr_elephant_40_n02504013_6712.JPEG
alexnet,7,742,NaN,elephant,elephant,cr,8422_cl_dnn_cr_elephant_40_n02504458_5124.JPEG
alexnet,7,743,NaN,elephant,elephant,cr,8423_cl_dnn_cr_elephant_40_n02504013_2358.JPEG
alexnet,7,744,NaN,elephant,elephant,cr,8424_cl_dnn_cr_elephant_40_n02504458_5376.JPEG
alexnet,7,745,NaN,elephant,elephant,cr,8425_cl_dnn_cr_elephant_40_n02504458_480.JPEG
alexnet,7,746,NaN,elephant,elephant,cr,8426_cl_dnn_cr_elephant_40_n02504013_10823.JPEG
alexnet,7,747,NaN,elephant,elephant,cr,8427_cl_dnn_cr_elephant_40_n02504013_20.JPEG
alexnet,7,748,NaN,elephant,elephant,cr,8428_cl_dnn_cr_elephant_40_n02504458_6301.JPEG
alexnet,7,749,NaN,dog,elephant,cr,8429_cl_dnn_cr_elephant_40_n02504013_843.JPEG
alexnet,7,750,NaN,elephant,elephant,cr,8430_cl_dnn_cr_elephant_40_n02504458_5902.JPEG
alexnet,7,751,NaN,elephant,elephant,cr,8431_cl_dnn_cr_elephant_40_n02504013_4406.JPEG
alexnet,7,752,NaN,elephant,elephant,cr,8432_cl_dnn_cr_elephant_40_n02504458_7929.JPEG
alexnet,7,753,NaN,elephant,elephant,cr,8433_cl_dnn_cr_elephant_40_n02504013_3409.JPEG
alexnet,7,754,NaN,elephant,elephant,cr,8434_cl_dnn_cr_elephant_40_n02504458_8161.JPEG
alexnet,7,755,NaN,elephant,elephant,cr,8435_cl_dnn_cr_elephant_40_n02504458_1291.JPEG
alexnet,7,756,NaN,elephant,elephant,cr,8436_cl_dnn_cr_elephant_40_n02504458_3843.JPEG
alexnet,7,757,NaN,elephant,elephant,cr,8437_cl_dnn_cr_elephant_40_n02504458_3906.JPEG
alexnet,7,758,NaN,bear,elephant,cr,8438_cl_dnn_cr_elephant_40_n02504458_988.JPEG
alexnet,7,759,NaN,elephant,elephant,cr,8439_cl_dnn_cr_elephant_40_n02504013_18400.JPEG
alexnet,7,760,NaN,elephant,elephant,cr,8440_cl_dnn_cr_elephant_40_n02504458_837.JPEG
alexnet,7,761,NaN,bicycle,bicycle,cr,8441_cl_dnn_cr_bicycle_40_n02835271_2581.JPEG
alexnet,7,762,NaN,bicycle,bicycle,cr,8442_cl_dnn_cr_bicycle_40_n03792782_9991.JPEG
alexnet,7,763,NaN,bicycle,bicycle,cr,8443_cl_dnn_cr_bicycle_40_n02835271_14504.JPEG
alexnet,7,764,NaN,bicycle,bicycle,cr,8444_cl_dnn_cr_bicycle_40_n02835271_9416.JPEG
alexnet,7,765,NaN,bicycle,bicycle,cr,8445_cl_dnn_cr_bicycle_40_n03792782_14931.JPEG
alexnet,7,766,NaN,bicycle,bicycle,cr,8446_cl_dnn_cr_bicycle_40_n02835271_18288.JPEG
alexnet,7,767,NaN,bicycle,bicycle,cr,8447_cl_dnn_cr_bicycle_40_n02835271_10668.JPEG
alexnet,7,768,NaN,bicycle,bicycle,cr,8448_cl_dnn_cr_bicycle_40_n03792782_7269.JPEG
alexnet,7,769,NaN,bicycle,bicycle,cr,8449_cl_dnn_cr_bicycle_40_n02835271_18361.JPEG
alexnet,7,770,NaN,bicycle,bicycle,cr,8450_cl_dnn_cr_bicycle_40_n03792782_8799.JPEG
alexnet,7,771,NaN,bicycle,bicycle,cr,8451_cl_dnn_cr_bicycle_40_n02835271_6282.JPEG
alexnet,7,772,NaN,bicycle,bicycle,cr,8452_cl_dnn_cr_bicycle_40_n03792782_19003.JPEG
alexnet,7,773,NaN,bicycle,bicycle,cr,8453_cl_dnn_cr_bicycle_40_n03792782_6413.JPEG
alexnet,7,774,NaN,bicycle,bicycle,cr,8454_cl_dnn_cr_bicycle_40_n02835271_24230.JPEG
alexnet,7,775,NaN,bicycle,bicycle,cr,8455_cl_dnn_cr_bicycle_40_n03792782_3765.JPEG
alexnet,7,776,NaN,bicycle,bicycle,cr,8456_cl_dnn_cr_bicycle_40_n02835271_6946.JPEG
alexnet,7,777,NaN,bicycle,bicycle,cr,8457_cl_dnn_cr_bicycle_40_n02835271_6094.JPEG
alexnet,7,778,NaN,bicycle,bicycle,cr,8458_cl_dnn_cr_bicycle_40_n02835271_5868.JPEG
alexnet,7,779,NaN,bicycle,bicycle,cr,8459_cl_dnn_cr_bicycle_40_n02835271_9188.JPEG
alexnet,7,780,NaN,bicycle,bicycle,cr,8460_cl_dnn_cr_bicycle_40_n02835271_14862.JPEG
alexnet,7,781,NaN,bicycle,bicycle,cr,8461_cl_dnn_cr_bicycle_40_n02835271_13793.JPEG
alexnet,7,782,NaN,bicycle,bicycle,cr,8462_cl_dnn_cr_bicycle_40_n02835271_21339.JPEG
alexnet,7,783,NaN,bicycle,bicycle,cr,8463_cl_dnn_cr_bicycle_40_n03792782_8329.JPEG
alexnet,7,784,NaN,bicycle,bicycle,cr,8464_cl_dnn_cr_bicycle_40_n03792782_14935.JPEG
alexnet,7,785,NaN,bicycle,bicycle,cr,8465_cl_dnn_cr_bicycle_40_n02835271_14228.JPEG
alexnet,7,786,NaN,bicycle,bicycle,cr,8466_cl_dnn_cr_bicycle_40_n02835271_24851.JPEG
alexnet,7,787,NaN,bicycle,bicycle,cr,8467_cl_dnn_cr_bicycle_40_n03792782_52581.JPEG
alexnet,7,788,NaN,bicycle,bicycle,cr,8468_cl_dnn_cr_bicycle_40_n03792782_7354.JPEG
alexnet,7,789,NaN,bicycle,bicycle,cr,8469_cl_dnn_cr_bicycle_40_n03792782_50446.JPEG
alexnet,7,790,NaN,bicycle,bicycle,cr,8470_cl_dnn_cr_bicycle_40_n03792782_8550.JPEG
alexnet,7,791,NaN,bicycle,bicycle,cr,8471_cl_dnn_cr_bicycle_40_n03792782_6512.JPEG
alexnet,7,792,NaN,bicycle,bicycle,cr,8472_cl_dnn_cr_bicycle_40_n02835271_7621.JPEG
alexnet,7,793,NaN,bicycle,bicycle,cr,8473_cl_dnn_cr_bicycle_40_n02835271_21558.JPEG
alexnet,7,794,NaN,bicycle,bicycle,cr,8474_cl_dnn_cr_bicycle_40_n02835271_12437.JPEG
alexnet,7,795,NaN,bicycle,bicycle,cr,8475_cl_dnn_cr_bicycle_40_n03792782_4797.JPEG
alexnet,7,796,NaN,bicycle,bicycle,cr,8476_cl_dnn_cr_bicycle_40_n02835271_1055.JPEG
alexnet,7,797,NaN,bicycle,bicycle,cr,8477_cl_dnn_cr_bicycle_40_n02835271_25519.JPEG
alexnet,7,798,NaN,bicycle,bicycle,cr,8478_cl_dnn_cr_bicycle_40_n02835271_21490.JPEG
alexnet,7,799,NaN,bicycle,bicycle,cr,8479_cl_dnn_cr_bicycle_40_n03792782_19933.JPEG
alexnet,7,800,NaN,bicycle,bicycle,cr,8480_cl_dnn_cr_bicycle_40_n03792782_12470.JPEG
alexnet,7,801,NaN,airplane,airplane,cr,8481_cl_dnn_cr_airplane_40_n02690373_3728.JPEG
alexnet,7,802,NaN,airplane,airplane,cr,8482_cl_dnn_cr_airplane_40_n02690373_3400.JPEG
alexnet,7,803,NaN,airplane,airplane,cr,8483_cl_dnn_cr_airplane_40_n02690373_4410.JPEG
alexnet,7,804,NaN,airplane,airplane,cr,8484_cl_dnn_cr_airplane_40_n02690373_17694.JPEG
alexnet,7,805,NaN,airplane,airplane,cr,8485_cl_dnn_cr_airplane_40_n02690373_10231.JPEG
alexnet,7,806,NaN,airplane,airplane,cr,8486_cl_dnn_cr_airplane_40_n02690373_1909.JPEG
alexnet,7,807,NaN,airplane,airplane,cr,8487_cl_dnn_cr_airplane_40_n02690373_19074.JPEG
alexnet,7,808,NaN,airplane,airplane,cr,8488_cl_dnn_cr_airplane_40_n02690373_4946.JPEG
alexnet,7,809,NaN,airplane,airplane,cr,8489_cl_dnn_cr_airplane_40_n02690373_9266.JPEG
alexnet,7,810,NaN,airplane,airplane,cr,8490_cl_dnn_cr_airplane_40_n02690373_4552.JPEG
alexnet,7,811,NaN,airplane,airplane,cr,8491_cl_dnn_cr_airplane_40_n02690373_4506.JPEG
alexnet,7,812,NaN,airplane,airplane,cr,8492_cl_dnn_cr_airplane_40_n02690373_4704.JPEG
alexnet,7,813,NaN,airplane,airplane,cr,8493_cl_dnn_cr_airplane_40_n02690373_12756.JPEG
alexnet,7,814,NaN,airplane,airplane,cr,8494_cl_dnn_cr_airplane_40_n02690373_10506.JPEG
alexnet,7,815,NaN,airplane,airplane,cr,8495_cl_dnn_cr_airplane_40_n02690373_5487.JPEG
alexnet,7,816,NaN,airplane,airplane,cr,8496_cl_dnn_cr_airplane_40_n02690373_5475.JPEG
alexnet,7,817,NaN,airplane,airplane,cr,8497_cl_dnn_cr_airplane_40_n02690373_8770.JPEG
alexnet,7,818,NaN,airplane,airplane,cr,8498_cl_dnn_cr_airplane_40_n02690373_20996.JPEG
alexnet,7,819,NaN,airplane,airplane,cr,8499_cl_dnn_cr_airplane_40_n02690373_1279.JPEG
alexnet,7,820,NaN,airplane,airplane,cr,8500_cl_dnn_cr_airplane_40_n02690373_2856.JPEG
alexnet,7,821,NaN,airplane,airplane,cr,8501_cl_dnn_cr_airplane_40_n02690373_5106.JPEG
alexnet,7,822,NaN,airplane,airplane,cr,8502_cl_dnn_cr_airplane_40_n02690373_2025.JPEG
alexnet,7,823,NaN,airplane,airplane,cr,8503_cl_dnn_cr_airplane_40_n02690373_7055.JPEG
alexnet,7,824,NaN,airplane,airplane,cr,8504_cl_dnn_cr_airplane_40_n02690373_19118.JPEG
alexnet,7,825,NaN,airplane,airplane,cr,8505_cl_dnn_cr_airplane_40_n02690373_3468.JPEG
alexnet,7,826,NaN,airplane,airplane,cr,8506_cl_dnn_cr_airplane_40_n02690373_1912.JPEG
alexnet,7,827,NaN,airplane,airplane,cr,8507_cl_dnn_cr_airplane_40_n02690373_7046.JPEG
alexnet,7,828,NaN,airplane,airplane,cr,8508_cl_dnn_cr_airplane_40_n02690373_9712.JPEG
alexnet,7,829,NaN,airplane,airplane,cr,8509_cl_dnn_cr_airplane_40_n02690373_19916.JPEG
alexnet,7,830,NaN,airplane,airplane,cr,8510_cl_dnn_cr_airplane_40_n02690373_13206.JPEG
alexnet,7,831,NaN,airplane,airplane,cr,8511_cl_dnn_cr_airplane_40_n02690373_10926.JPEG
alexnet,7,832,NaN,airplane,airplane,cr,8512_cl_dnn_cr_airplane_40_n02690373_3377.JPEG
alexnet,7,833,NaN,airplane,airplane,cr,8513_cl_dnn_cr_airplane_40_n02690373_1492.JPEG
alexnet,7,834,NaN,airplane,airplane,cr,8514_cl_dnn_cr_airplane_40_n02690373_6104.JPEG
alexnet,7,835,NaN,airplane,airplane,cr,8515_cl_dnn_cr_airplane_40_n02690373_6618.JPEG
alexnet,7,836,NaN,airplane,airplane,cr,8516_cl_dnn_cr_airplane_40_n02690373_6046.JPEG
alexnet,7,837,NaN,airplane,airplane,cr,8517_cl_dnn_cr_airplane_40_n02690373_8846.JPEG
alexnet,7,838,NaN,airplane,airplane,cr,8518_cl_dnn_cr_airplane_40_n02690373_3877.JPEG
alexnet,7,839,NaN,airplane,airplane,cr,8519_cl_dnn_cr_airplane_40_n02690373_7499.JPEG
alexnet,7,840,NaN,airplane,airplane,cr,8520_cl_dnn_cr_airplane_40_n02690373_9794.JPEG
alexnet,7,841,NaN,clock,clock,cr,8521_cl_dnn_cr_clock_40_n02708093_777.JPEG
alexnet,7,842,NaN,clock,clock,cr,8522_cl_dnn_cr_clock_40_n03196217_2192.JPEG
alexnet,7,843,NaN,clock,clock,cr,8523_cl_dnn_cr_clock_40_n04548280_8156.JPEG
alexnet,7,844,NaN,clock,clock,cr,8524_cl_dnn_cr_clock_40_n04548280_13871.JPEG
alexnet,7,845,NaN,clock,clock,cr,8525_cl_dnn_cr_clock_40_n04548280_3782.JPEG
alexnet,7,846,NaN,clock,clock,cr,8526_cl_dnn_cr_clock_40_n03196217_970.JPEG
alexnet,7,847,NaN,clock,clock,cr,8527_cl_dnn_cr_clock_40_n04548280_1200.JPEG
alexnet,7,848,NaN,bird,clock,cr,8528_cl_dnn_cr_clock_40_n04548280_3234.JPEG
alexnet,7,849,NaN,clock,clock,cr,8529_cl_dnn_cr_clock_40_n04548280_6122.JPEG
alexnet,7,850,NaN,clock,clock,cr,8530_cl_dnn_cr_clock_40_n04548280_22641.JPEG
alexnet,7,851,NaN,clock,clock,cr,8531_cl_dnn_cr_clock_40_n03196217_2695.JPEG
alexnet,7,852,NaN,clock,clock,cr,8532_cl_dnn_cr_clock_40_n02708093_603.JPEG
alexnet,7,853,NaN,clock,clock,cr,8533_cl_dnn_cr_clock_40_n02708093_8311.JPEG
alexnet,7,854,NaN,clock,clock,cr,8534_cl_dnn_cr_clock_40_n02708093_2063.JPEG
alexnet,7,855,NaN,clock,clock,cr,8535_cl_dnn_cr_clock_40_n03196217_1687.JPEG
alexnet,7,856,NaN,clock,clock,cr,8536_cl_dnn_cr_clock_40_n04548280_2809.JPEG
alexnet,7,857,NaN,clock,clock,cr,8537_cl_dnn_cr_clock_40_n04548280_5320.JPEG
alexnet,7,858,NaN,clock,clock,cr,8538_cl_dnn_cr_clock_40_n03196217_6193.JPEG
alexnet,7,859,NaN,clock,clock,cr,8539_cl_dnn_cr_clock_40_n03196217_5225.JPEG
alexnet,7,860,NaN,clock,clock,cr,8540_cl_dnn_cr_clock_40_n02708093_3636.JPEG
alexnet,7,861,NaN,clock,clock,cr,8541_cl_dnn_cr_clock_40_n03196217_6474.JPEG
alexnet,7,862,NaN,clock,clock,cr,8542_cl_dnn_cr_clock_40_n04548280_9121.JPEG
alexnet,7,863,NaN,clock,clock,cr,8543_cl_dnn_cr_clock_40_n03196217_9176.JPEG
alexnet,7,864,NaN,clock,clock,cr,8544_cl_dnn_cr_clock_40_n02708093_3622.JPEG
alexnet,7,865,NaN,clock,clock,cr,8545_cl_dnn_cr_clock_40_n02708093_1309.JPEG
alexnet,7,866,NaN,clock,clock,cr,8546_cl_dnn_cr_clock_40_n04548280_2229.JPEG
alexnet,7,867,NaN,clock,clock,cr,8547_cl_dnn_cr_clock_40_n02708093_3043.JPEG
alexnet,7,868,NaN,clock,clock,cr,8548_cl_dnn_cr_clock_40_n02708093_391.JPEG
alexnet,7,869,NaN,clock,clock,cr,8549_cl_dnn_cr_clock_40_n03196217_5910.JPEG
alexnet,7,870,NaN,clock,clock,cr,8550_cl_dnn_cr_clock_40_n04548280_28.JPEG
alexnet,7,871,NaN,clock,clock,cr,8551_cl_dnn_cr_clock_40_n02708093_5169.JPEG
alexnet,7,872,NaN,clock,clock,cr,8552_cl_dnn_cr_clock_40_n04548280_4599.JPEG
alexnet,7,873,NaN,clock,clock,cr,8553_cl_dnn_cr_clock_40_n04548280_4783.JPEG
alexnet,7,874,NaN,clock,clock,cr,8554_cl_dnn_cr_clock_40_n04548280_3098.JPEG
alexnet,7,875,NaN,clock,clock,cr,8555_cl_dnn_cr_clock_40_n03196217_5554.JPEG
alexnet,7,876,NaN,clock,clock,cr,8556_cl_dnn_cr_clock_40_n02708093_1921.JPEG
alexnet,7,877,NaN,clock,clock,cr,8557_cl_dnn_cr_clock_40_n04548280_77.JPEG
alexnet,7,878,NaN,clock,clock,cr,8558_cl_dnn_cr_clock_40_n02708093_3759.JPEG
alexnet,7,879,NaN,clock,clock,cr,8559_cl_dnn_cr_clock_40_n04548280_10162.JPEG
alexnet,7,880,NaN,clock,clock,cr,8560_cl_dnn_cr_clock_40_n02708093_6148.JPEG
alexnet,7,881,NaN,oven,oven,cr,8561_cl_dnn_cr_oven_40_n04111531_9881.JPEG
alexnet,7,882,NaN,oven,oven,cr,8562_cl_dnn_cr_oven_40_n04111531_2826.JPEG
alexnet,7,883,NaN,dog,oven,cr,8563_cl_dnn_cr_oven_40_n04111531_21382.JPEG
alexnet,7,884,NaN,oven,oven,cr,8564_cl_dnn_cr_oven_40_n04111531_11157.JPEG
alexnet,7,885,NaN,oven,oven,cr,8565_cl_dnn_cr_oven_40_n04111531_15489.JPEG
alexnet,7,886,NaN,oven,oven,cr,8566_cl_dnn_cr_oven_40_n04111531_7452.JPEG
alexnet,7,887,NaN,oven,oven,cr,8567_cl_dnn_cr_oven_40_n04111531_9304.JPEG
alexnet,7,888,NaN,oven,oven,cr,8568_cl_dnn_cr_oven_40_n04111531_9178.JPEG
alexnet,7,889,NaN,oven,oven,cr,8569_cl_dnn_cr_oven_40_n04111531_4444.JPEG
alexnet,7,890,NaN,oven,oven,cr,8570_cl_dnn_cr_oven_40_n04111531_9498.JPEG
alexnet,7,891,NaN,oven,oven,cr,8571_cl_dnn_cr_oven_40_n04111531_2054.JPEG
alexnet,7,892,NaN,oven,oven,cr,8572_cl_dnn_cr_oven_40_n04111531_1873.JPEG
alexnet,7,893,NaN,oven,oven,cr,8573_cl_dnn_cr_oven_40_n04111531_9712.JPEG
alexnet,7,894,NaN,oven,oven,cr,8574_cl_dnn_cr_oven_40_n04111531_5888.JPEG
alexnet,7,895,NaN,oven,oven,cr,8575_cl_dnn_cr_oven_40_n04111531_7945.JPEG
alexnet,7,896,NaN,oven,oven,cr,8576_cl_dnn_cr_oven_40_n04111531_4904.JPEG
alexnet,7,897,NaN,oven,oven,cr,8577_cl_dnn_cr_oven_40_n04111531_4421.JPEG
alexnet,7,898,NaN,dog,oven,cr,8578_cl_dnn_cr_oven_40_n04111531_49.JPEG
alexnet,7,899,NaN,oven,oven,cr,8579_cl_dnn_cr_oven_40_n04111531_9982.JPEG
alexnet,7,900,NaN,oven,oven,cr,8580_cl_dnn_cr_oven_40_n04111531_2385.JPEG
alexnet,7,901,NaN,oven,oven,cr,8581_cl_dnn_cr_oven_40_n04111531_10358.JPEG
alexnet,7,902,NaN,oven,oven,cr,8582_cl_dnn_cr_oven_40_n04111531_6454.JPEG
alexnet,7,903,NaN,oven,oven,cr,8583_cl_dnn_cr_oven_40_n04111531_14280.JPEG
alexnet,7,904,NaN,oven,oven,cr,8584_cl_dnn_cr_oven_40_n04111531_4988.JPEG
alexnet,7,905,NaN,oven,oven,cr,8585_cl_dnn_cr_oven_40_n04111531_12885.JPEG
alexnet,7,906,NaN,oven,oven,cr,8586_cl_dnn_cr_oven_40_n04111531_19157.JPEG
alexnet,7,907,NaN,oven,oven,cr,8587_cl_dnn_cr_oven_40_n04111531_13128.JPEG
alexnet,7,908,NaN,oven,oven,cr,8588_cl_dnn_cr_oven_40_n04111531_1002.JPEG
alexnet,7,909,NaN,truck,oven,cr,8589_cl_dnn_cr_oven_40_n04111531_8988.JPEG
alexnet,7,910,NaN,oven,oven,cr,8590_cl_dnn_cr_oven_40_n04111531_5429.JPEG
alexnet,7,911,NaN,oven,oven,cr,8591_cl_dnn_cr_oven_40_n04111531_13795.JPEG
alexnet,7,912,NaN,oven,oven,cr,8592_cl_dnn_cr_oven_40_n04111531_3098.JPEG
alexnet,7,913,NaN,oven,oven,cr,8593_cl_dnn_cr_oven_40_n04111531_6863.JPEG
alexnet,7,914,NaN,oven,oven,cr,8594_cl_dnn_cr_oven_40_n04111531_18223.JPEG
alexnet,7,915,NaN,oven,oven,cr,8595_cl_dnn_cr_oven_40_n04111531_3555.JPEG
alexnet,7,916,NaN,oven,oven,cr,8596_cl_dnn_cr_oven_40_n04111531_20914.JPEG
alexnet,7,917,NaN,oven,oven,cr,8597_cl_dnn_cr_oven_40_n04111531_2350.JPEG
alexnet,7,918,NaN,oven,oven,cr,8598_cl_dnn_cr_oven_40_n04111531_14279.JPEG
alexnet,7,919,NaN,oven,oven,cr,8599_cl_dnn_cr_oven_40_n04111531_1662.JPEG
alexnet,7,920,NaN,oven,oven,cr,8600_cl_dnn_cr_oven_40_n04111531_11110.JPEG
alexnet,7,921,NaN,chair,chair,cr,8601_cl_dnn_cr_chair_40_n04429376_18546.JPEG
alexnet,7,922,NaN,chair,chair,cr,8602_cl_dnn_cr_chair_40_n02791124_1115.JPEG
alexnet,7,923,NaN,chair,chair,cr,8603_cl_dnn_cr_chair_40_n04099969_2694.JPEG
alexnet,7,924,NaN,chair,chair,cr,8604_cl_dnn_cr_chair_40_n03376595_9536.JPEG
alexnet,7,925,NaN,chair,chair,cr,8605_cl_dnn_cr_chair_40_n03376595_16763.JPEG
alexnet,7,926,NaN,chair,chair,cr,8606_cl_dnn_cr_chair_40_n04099969_3231.JPEG
alexnet,7,927,NaN,chair,chair,cr,8607_cl_dnn_cr_chair_40_n04429376_4564.JPEG
alexnet,7,928,NaN,chair,chair,cr,8608_cl_dnn_cr_chair_40_n02791124_2392.JPEG
alexnet,7,929,NaN,chair,chair,cr,8609_cl_dnn_cr_chair_40_n02791124_2282.JPEG
alexnet,7,930,NaN,chair,chair,cr,8610_cl_dnn_cr_chair_40_n03376595_2931.JPEG
alexnet,7,931,NaN,chair,chair,cr,8611_cl_dnn_cr_chair_40_n02791124_16885.JPEG
alexnet,7,932,NaN,chair,chair,cr,8612_cl_dnn_cr_chair_40_n03376595_3222.JPEG
alexnet,7,933,NaN,chair,chair,cr,8613_cl_dnn_cr_chair_40_n03376595_5074.JPEG
alexnet,7,934,NaN,chair,chair,cr,8614_cl_dnn_cr_chair_40_n02791124_1049.JPEG
alexnet,7,935,NaN,chair,chair,cr,8615_cl_dnn_cr_chair_40_n03376595_2052.JPEG
alexnet,7,936,NaN,chair,chair,cr,8616_cl_dnn_cr_chair_40_n02791124_8323.JPEG
alexnet,7,937,NaN,chair,chair,cr,8617_cl_dnn_cr_chair_40_n04429376_24073.JPEG
alexnet,7,938,NaN,chair,chair,cr,8618_cl_dnn_cr_chair_40_n03376595_2694.JPEG
alexnet,7,939,NaN,chair,chair,cr,8619_cl_dnn_cr_chair_40_n04099969_38123.JPEG
alexnet,7,940,NaN,chair,chair,cr,8620_cl_dnn_cr_chair_40_n03376595_8633.JPEG
alexnet,7,941,NaN,chair,chair,cr,8621_cl_dnn_cr_chair_40_n02791124_1566.JPEG
alexnet,7,942,NaN,chair,chair,cr,8622_cl_dnn_cr_chair_40_n04429376_15058.JPEG
alexnet,7,943,NaN,chair,chair,cr,8623_cl_dnn_cr_chair_40_n02791124_9661.JPEG
alexnet,7,944,NaN,dog,chair,cr,8624_cl_dnn_cr_chair_40_n03376595_12583.JPEG
alexnet,7,945,NaN,chair,chair,cr,8625_cl_dnn_cr_chair_40_n04099969_21489.JPEG
alexnet,7,946,NaN,car,chair,cr,8626_cl_dnn_cr_chair_40_n04099969_14056.JPEG
alexnet,7,947,NaN,chair,chair,cr,8627_cl_dnn_cr_chair_40_n04099969_21883.JPEG
alexnet,7,948,NaN,chair,chair,cr,8628_cl_dnn_cr_chair_40_n04099969_15553.JPEG
alexnet,7,949,NaN,chair,chair,cr,8629_cl_dnn_cr_chair_40_n04099969_28072.JPEG
alexnet,7,950,NaN,chair,chair,cr,8630_cl_dnn_cr_chair_40_n04429376_22811.JPEG
alexnet,7,951,NaN,chair,chair,cr,8631_cl_dnn_cr_chair_40_n02791124_5490.JPEG
alexnet,7,952,NaN,bottle,chair,cr,8632_cl_dnn_cr_chair_40_n04429376_7558.JPEG
alexnet,7,953,NaN,chair,chair,cr,8633_cl_dnn_cr_chair_40_n04429376_29018.JPEG
alexnet,7,954,NaN,chair,chair,cr,8634_cl_dnn_cr_chair_40_n02791124_335.JPEG
alexnet,7,955,NaN,chair,chair,cr,8635_cl_dnn_cr_chair_40_n04099969_19035.JPEG
alexnet,7,956,NaN,knife,chair,cr,8636_cl_dnn_cr_chair_40_n02791124_6417.JPEG
alexnet,7,957,NaN,chair,chair,cr,8637_cl_dnn_cr_chair_40_n02791124_5411.JPEG
alexnet,7,958,NaN,chair,chair,cr,8638_cl_dnn_cr_chair_40_n04429376_12617.JPEG
alexnet,7,959,NaN,chair,chair,cr,8639_cl_dnn_cr_chair_40_n04099969_11943.JPEG
alexnet,7,960,NaN,chair,chair,cr,8640_cl_dnn_cr_chair_40_n02791124_6648.JPEG
alexnet,7,961,NaN,bear,bear,cr,8641_cl_dnn_cr_bear_40_n02134084_6702.JPEG
alexnet,7,962,NaN,bear,bear,cr,8642_cl_dnn_cr_bear_40_n02134418_5737.JPEG
alexnet,7,963,NaN,bear,bear,cr,8643_cl_dnn_cr_bear_40_n02134084_23382.JPEG
alexnet,7,964,NaN,bear,bear,cr,8644_cl_dnn_cr_bear_40_n02133161_178.JPEG
alexnet,7,965,NaN,bear,bear,cr,8645_cl_dnn_cr_bear_40_n02132136_276.JPEG
alexnet,7,966,NaN,bear,bear,cr,8646_cl_dnn_cr_bear_40_n02133161_13267.JPEG
alexnet,7,967,NaN,bear,bear,cr,8647_cl_dnn_cr_bear_40_n02134084_21906.JPEG
alexnet,7,968,NaN,bear,bear,cr,8648_cl_dnn_cr_bear_40_n02134418_9485.JPEG
alexnet,7,969,NaN,bear,bear,cr,8649_cl_dnn_cr_bear_40_n02134084_15510.JPEG
alexnet,7,970,NaN,bear,bear,cr,8650_cl_dnn_cr_bear_40_n02134418_9315.JPEG
alexnet,7,971,NaN,bear,bear,cr,8651_cl_dnn_cr_bear_40_n02134418_5948.JPEG
alexnet,7,972,NaN,bear,bear,cr,8652_cl_dnn_cr_bear_40_n02132136_14208.JPEG
alexnet,7,973,NaN,bear,bear,cr,8653_cl_dnn_cr_bear_40_n02132136_6697.JPEG
alexnet,7,974,NaN,bear,bear,cr,8654_cl_dnn_cr_bear_40_n02133161_218.JPEG
alexnet,7,975,NaN,bear,bear,cr,8655_cl_dnn_cr_bear_40_n02134418_4267.JPEG
alexnet,7,976,NaN,dog,bear,cr,8656_cl_dnn_cr_bear_40_n02134084_21321.JPEG
alexnet,7,977,NaN,bear,bear,cr,8657_cl_dnn_cr_bear_40_n02134418_18844.JPEG
alexnet,7,978,NaN,bear,bear,cr,8658_cl_dnn_cr_bear_40_n02132136_29029.JPEG
alexnet,7,979,NaN,bear,bear,cr,8659_cl_dnn_cr_bear_40_n02134418_2895.JPEG
alexnet,7,980,NaN,bear,bear,cr,8660_cl_dnn_cr_bear_40_n02132136_2489.JPEG
alexnet,7,981,NaN,bear,bear,cr,8661_cl_dnn_cr_bear_40_n02134418_1267.JPEG
alexnet,7,982,NaN,bear,bear,cr,8662_cl_dnn_cr_bear_40_n02133161_412.JPEG
alexnet,7,983,NaN,bear,bear,cr,8663_cl_dnn_cr_bear_40_n02133161_4195.JPEG
alexnet,7,984,NaN,bear,bear,cr,8664_cl_dnn_cr_bear_40_n02134084_3895.JPEG
alexnet,7,985,NaN,bear,bear,cr,8665_cl_dnn_cr_bear_40_n02134084_8250.JPEG
alexnet,7,986,NaN,bear,bear,cr,8666_cl_dnn_cr_bear_40_n02133161_11680.JPEG
alexnet,7,987,NaN,bear,bear,cr,8667_cl_dnn_cr_bear_40_n02133161_6883.JPEG
alexnet,7,988,NaN,bear,bear,cr,8668_cl_dnn_cr_bear_40_n02134418_3979.JPEG
alexnet,7,989,NaN,bear,bear,cr,8669_cl_dnn_cr_bear_40_n02134418_4374.JPEG
alexnet,7,990,NaN,bear,bear,cr,8670_cl_dnn_cr_bear_40_n02134418_1043.JPEG
alexnet,7,991,NaN,bear,bear,cr,8671_cl_dnn_cr_bear_40_n02132136_11933.JPEG
alexnet,7,992,NaN,dog,bear,cr,8672_cl_dnn_cr_bear_40_n02134418_10852.JPEG
alexnet,7,993,NaN,bear,bear,cr,8673_cl_dnn_cr_bear_40_n02133161_1492.JPEG
alexnet,7,994,NaN,bear,bear,cr,8674_cl_dnn_cr_bear_40_n02134418_1080.JPEG
alexnet,7,995,NaN,dog,bear,cr,8675_cl_dnn_cr_bear_40_n02133161_179.JPEG
alexnet,7,996,NaN,bear,bear,cr,8676_cl_dnn_cr_bear_40_n02132136_11217.JPEG
alexnet,7,997,NaN,bear,bear,cr,8677_cl_dnn_cr_bear_40_n02133161_2853.JPEG
alexnet,7,998,NaN,bear,bear,cr,8678_cl_dnn_cr_bear_40_n02132136_7842.JPEG
alexnet,7,999,NaN,bear,bear,cr,8679_cl_dnn_cr_bear_40_n02134084_8684.JPEG
alexnet,7,1000,NaN,bear,bear,cr,8680_cl_dnn_cr_bear_40_n02134418_5582.JPEG
alexnet,7,1001,NaN,boat,boat,cr,8681_cl_dnn_cr_boat_40_n03344393_8407.JPEG
alexnet,7,1002,NaN,boat,boat,cr,8682_cl_dnn_cr_boat_40_n03662601_8787.JPEG
alexnet,7,1003,NaN,boat,boat,cr,8683_cl_dnn_cr_boat_40_n02951358_10018.JPEG
alexnet,7,1004,NaN,boat,boat,cr,8684_cl_dnn_cr_boat_40_n04273569_14363.JPEG
alexnet,7,1005,NaN,boat,boat,cr,8685_cl_dnn_cr_boat_40_n03344393_2536.JPEG
alexnet,7,1006,NaN,boat,boat,cr,8686_cl_dnn_cr_boat_40_n03662601_611.JPEG
alexnet,7,1007,NaN,boat,boat,cr,8687_cl_dnn_cr_boat_40_n02951358_3898.JPEG
alexnet,7,1008,NaN,boat,boat,cr,8688_cl_dnn_cr_boat_40_n04273569_4882.JPEG
alexnet,7,1009,NaN,boat,boat,cr,8689_cl_dnn_cr_boat_40_n02951358_1212.JPEG
alexnet,7,1010,NaN,boat,boat,cr,8690_cl_dnn_cr_boat_40_n03344393_1027.JPEG
alexnet,7,1011,NaN,boat,boat,cr,8691_cl_dnn_cr_boat_40_n02951358_5384.JPEG
alexnet,7,1012,NaN,boat,boat,cr,8692_cl_dnn_cr_boat_40_n03662601_21918.JPEG
alexnet,7,1013,NaN,boat,boat,cr,8693_cl_dnn_cr_boat_40_n03662601_20295.JPEG
alexnet,7,1014,NaN,boat,boat,cr,8694_cl_dnn_cr_boat_40_n02951358_13309.JPEG
alexnet,7,1015,NaN,boat,boat,cr,8695_cl_dnn_cr_boat_40_n03344393_5805.JPEG
alexnet,7,1016,NaN,boat,boat,cr,8696_cl_dnn_cr_boat_40_n04273569_13394.JPEG
alexnet,7,1017,NaN,boat,boat,cr,8697_cl_dnn_cr_boat_40_n02951358_30002.JPEG
alexnet,7,1018,NaN,boat,boat,cr,8698_cl_dnn_cr_boat_40_n03662601_23675.JPEG
alexnet,7,1019,NaN,boat,boat,cr,8699_cl_dnn_cr_boat_40_n04612504_16201.JPEG
alexnet,7,1020,NaN,boat,boat,cr,8700_cl_dnn_cr_boat_40_n03344393_671.JPEG
alexnet,7,1021,NaN,boat,boat,cr,8701_cl_dnn_cr_boat_40_n03662601_10734.JPEG
alexnet,7,1022,NaN,boat,boat,cr,8702_cl_dnn_cr_boat_40_n02951358_59739.JPEG
alexnet,7,1023,NaN,boat,boat,cr,8703_cl_dnn_cr_boat_40_n02951358_7238.JPEG
alexnet,7,1024,NaN,boat,boat,cr,8704_cl_dnn_cr_boat_40_n04273569_16456.JPEG
alexnet,7,1025,NaN,boat,boat,cr,8705_cl_dnn_cr_boat_40_n03662601_8681.JPEG
alexnet,7,1026,NaN,boat,boat,cr,8706_cl_dnn_cr_boat_40_n04612504_804.JPEG
alexnet,7,1027,NaN,boat,boat,cr,8707_cl_dnn_cr_boat_40_n03344393_737.JPEG
alexnet,7,1028,NaN,boat,boat,cr,8708_cl_dnn_cr_boat_40_n04273569_15625.JPEG
alexnet,7,1029,NaN,boat,boat,cr,8709_cl_dnn_cr_boat_40_n03344393_2652.JPEG
alexnet,7,1030,NaN,dog,boat,cr,8710_cl_dnn_cr_boat_40_n03344393_7655.JPEG
alexnet,7,1031,NaN,boat,boat,cr,8711_cl_dnn_cr_boat_40_n02951358_3780.JPEG
alexnet,7,1032,NaN,truck,boat,cr,8712_cl_dnn_cr_boat_40_n03344393_3610.JPEG
alexnet,7,1033,NaN,boat,boat,cr,8713_cl_dnn_cr_boat_40_n02951358_15422.JPEG
alexnet,7,1034,NaN,boat,boat,cr,8714_cl_dnn_cr_boat_40_n02951358_22150.JPEG
alexnet,7,1035,NaN,boat,boat,cr,8715_cl_dnn_cr_boat_40_n02951358_10778.JPEG
alexnet,7,1036,NaN,boat,boat,cr,8716_cl_dnn_cr_boat_40_n04612504_18059.JPEG
alexnet,7,1037,NaN,boat,boat,cr,8717_cl_dnn_cr_boat_40_n03662601_23715.JPEG
alexnet,7,1038,NaN,boat,boat,cr,8718_cl_dnn_cr_boat_40_n02951358_15144.JPEG
alexnet,7,1039,NaN,boat,boat,cr,8719_cl_dnn_cr_boat_40_n04612504_28498.JPEG
alexnet,7,1040,NaN,boat,boat,cr,8720_cl_dnn_cr_boat_40_n03662601_17858.JPEG
alexnet,7,1041,NaN,cat,cat,cr,8721_cl_dnn_cr_cat_40_n02125311_10275.JPEG
alexnet,7,1042,NaN,cat,cat,cr,8722_cl_dnn_cr_cat_40_n02123045_6226.JPEG
alexnet,7,1043,NaN,dog,cat,cr,8723_cl_dnn_cr_cat_40_n02123159_1807.JPEG
alexnet,7,1044,NaN,cat,cat,cr,8724_cl_dnn_cr_cat_40_n02124075_3360.JPEG
alexnet,7,1045,NaN,cat,cat,cr,8725_cl_dnn_cr_cat_40_n02125311_45746.JPEG
alexnet,7,1046,NaN,cat,cat,cr,8726_cl_dnn_cr_cat_40_n02123045_10834.JPEG
alexnet,7,1047,NaN,cat,cat,cr,8727_cl_dnn_cr_cat_40_n02123597_4300.JPEG
alexnet,7,1048,NaN,cat,cat,cr,8728_cl_dnn_cr_cat_40_n02123045_4929.JPEG
alexnet,7,1049,NaN,cat,cat,cr,8729_cl_dnn_cr_cat_40_n02125311_43078.JPEG
alexnet,7,1050,NaN,cat,cat,cr,8730_cl_dnn_cr_cat_40_n02123394_5001.JPEG
alexnet,7,1051,NaN,cat,cat,cr,8731_cl_dnn_cr_cat_40_n02123394_4654.JPEG
alexnet,7,1052,NaN,cat,cat,cr,8732_cl_dnn_cr_cat_40_n02124075_10768.JPEG
alexnet,7,1053,NaN,cat,cat,cr,8733_cl_dnn_cr_cat_40_n02123045_3089.JPEG
alexnet,7,1054,NaN,cat,cat,cr,8734_cl_dnn_cr_cat_40_n02123159_7333.JPEG
alexnet,7,1055,NaN,cat,cat,cr,8735_cl_dnn_cr_cat_40_n02125311_20283.JPEG
alexnet,7,1056,NaN,cat,cat,cr,8736_cl_dnn_cr_cat_40_n02123597_9954.JPEG
alexnet,7,1057,NaN,cat,cat,cr,8737_cl_dnn_cr_cat_40_n02123159_8246.JPEG
alexnet,7,1058,NaN,cat,cat,cr,8738_cl_dnn_cr_cat_40_n02123597_4879.JPEG
alexnet,7,1059,NaN,cat,cat,cr,8739_cl_dnn_cr_cat_40_n02124075_7825.JPEG
alexnet,7,1060,NaN,cat,cat,cr,8740_cl_dnn_cr_cat_40_n02123045_16528.JPEG
alexnet,7,1061,NaN,cat,cat,cr,8741_cl_dnn_cr_cat_40_n02123159_3569.JPEG
alexnet,7,1062,NaN,cat,cat,cr,8742_cl_dnn_cr_cat_40_n02123045_10894.JPEG
alexnet,7,1063,NaN,cat,cat,cr,8743_cl_dnn_cr_cat_40_n02123045_713.JPEG
alexnet,7,1064,NaN,cat,cat,cr,8744_cl_dnn_cr_cat_40_n02125311_76270.JPEG
alexnet,7,1065,NaN,cat,cat,cr,8745_cl_dnn_cr_cat_40_n02123159_3655.JPEG
alexnet,7,1066,NaN,cat,cat,cr,8746_cl_dnn_cr_cat_40_n02124075_4165.JPEG
alexnet,7,1067,NaN,cat,cat,cr,8747_cl_dnn_cr_cat_40_n02123045_18895.JPEG
alexnet,7,1068,NaN,cat,cat,cr,8748_cl_dnn_cr_cat_40_n02123597_468.JPEG
alexnet,7,1069,NaN,cat,cat,cr,8749_cl_dnn_cr_cat_40_n02123159_7702.JPEG
alexnet,7,1070,NaN,cat,cat,cr,8750_cl_dnn_cr_cat_40_n02123394_1692.JPEG
alexnet,7,1071,NaN,cat,cat,cr,8751_cl_dnn_cr_cat_40_n02123045_9647.JPEG
alexnet,7,1072,NaN,cat,cat,cr,8752_cl_dnn_cr_cat_40_n02123394_3154.JPEG
alexnet,7,1073,NaN,cat,cat,cr,8753_cl_dnn_cr_cat_40_n02125311_23734.JPEG
alexnet,7,1074,NaN,cat,cat,cr,8754_cl_dnn_cr_cat_40_n02125311_16082.JPEG
alexnet,7,1075,NaN,cat,cat,cr,8755_cl_dnn_cr_cat_40_n02125311_35540.JPEG
alexnet,7,1076,NaN,cat,cat,cr,8756_cl_dnn_cr_cat_40_n02124075_12325.JPEG
alexnet,7,1077,NaN,cat,cat,cr,8757_cl_dnn_cr_cat_40_n02123597_5621.JPEG
alexnet,7,1078,NaN,cat,cat,cr,8758_cl_dnn_cr_cat_40_n02123597_8052.JPEG
alexnet,7,1079,NaN,cat,cat,cr,8759_cl_dnn_cr_cat_40_n02124075_9065.JPEG
alexnet,7,1080,NaN,dog,cat,cr,8760_cl_dnn_cr_cat_40_n02125311_14701.JPEG
alexnet,7,1081,NaN,bottle,bottle,cr,8761_cl_dnn_cr_bottle_40_n03983396_9794.JPEG
alexnet,7,1082,NaN,bottle,bottle,cr,8762_cl_dnn_cr_bottle_40_n03983396_4186.JPEG
alexnet,7,1083,NaN,bottle,bottle,cr,8763_cl_dnn_cr_bottle_40_n02823428_3195.JPEG
alexnet,7,1084,NaN,bottle,bottle,cr,8764_cl_dnn_cr_bottle_40_n04557648_5948.JPEG
alexnet,7,1085,NaN,bottle,bottle,cr,8765_cl_dnn_cr_bottle_40_n04557648_9713.JPEG
alexnet,7,1086,NaN,bottle,bottle,cr,8766_cl_dnn_cr_bottle_40_n03937543_3054.JPEG
alexnet,7,1087,NaN,clock,bottle,cr,8767_cl_dnn_cr_bottle_40_n04560804_15291.JPEG
alexnet,7,1088,NaN,bottle,bottle,cr,8768_cl_dnn_cr_bottle_40_n02823428_11772.JPEG
alexnet,7,1089,NaN,bottle,bottle,cr,8769_cl_dnn_cr_bottle_40_n02823428_7570.JPEG
alexnet,7,1090,NaN,bottle,bottle,cr,8770_cl_dnn_cr_bottle_40_n03983396_10857.JPEG
alexnet,7,1091,NaN,boat,bottle,cr,8771_cl_dnn_cr_bottle_40_n02823428_9078.JPEG
alexnet,7,1092,NaN,bottle,bottle,cr,8772_cl_dnn_cr_bottle_40_n04591713_5112.JPEG
alexnet,7,1093,NaN,dog,bottle,cr,8773_cl_dnn_cr_bottle_40_n03937543_10509.JPEG
alexnet,7,1094,NaN,bottle,bottle,cr,8774_cl_dnn_cr_bottle_40_n04579145_3769.JPEG
alexnet,7,1095,NaN,bottle,bottle,cr,8775_cl_dnn_cr_bottle_40_n03983396_70.JPEG
alexnet,7,1096,NaN,bottle,bottle,cr,8776_cl_dnn_cr_bottle_40_n03983396_2277.JPEG
alexnet,7,1097,NaN,bottle,bottle,cr,8777_cl_dnn_cr_bottle_40_n04557648_5665.JPEG
alexnet,7,1098,NaN,dog,bottle,cr,8778_cl_dnn_cr_bottle_40_n02823428_5419.JPEG
alexnet,7,1099,NaN,bottle,bottle,cr,8779_cl_dnn_cr_bottle_40_n03937543_3676.JPEG
alexnet,7,1100,NaN,bottle,bottle,cr,8780_cl_dnn_cr_bottle_40_n04591713_5016.JPEG
alexnet,7,1101,NaN,bottle,bottle,cr,8781_cl_dnn_cr_bottle_40_n04557648_68.JPEG
alexnet,7,1102,NaN,bottle,bottle,cr,8782_cl_dnn_cr_bottle_40_n04560804_154.JPEG
alexnet,7,1103,NaN,bottle,bottle,cr,8783_cl_dnn_cr_bottle_40_n04557648_3798.JPEG
alexnet,7,1104,NaN,bottle,bottle,cr,8784_cl_dnn_cr_bottle_40_n04560804_10070.JPEG
alexnet,7,1105,NaN,bottle,bottle,cr,8785_cl_dnn_cr_bottle_40_n02823428_3680.JPEG
alexnet,7,1106,NaN,bottle,bottle,cr,8786_cl_dnn_cr_bottle_40_n04591713_5171.JPEG
alexnet,7,1107,NaN,bottle,bottle,cr,8787_cl_dnn_cr_bottle_40_n04591713_4936.JPEG
alexnet,7,1108,NaN,chair,bottle,cr,8788_cl_dnn_cr_bottle_40_n04560804_2002.JPEG
alexnet,7,1109,NaN,bird,bottle,cr,8789_cl_dnn_cr_bottle_40_n04560804_7048.JPEG
alexnet,7,1110,NaN,bottle,bottle,cr,8790_cl_dnn_cr_bottle_40_n03983396_9057.JPEG
alexnet,7,1111,NaN,bottle,bottle,cr,8791_cl_dnn_cr_bottle_40_n03937543_6356.JPEG
alexnet,7,1112,NaN,bottle,bottle,cr,8792_cl_dnn_cr_bottle_40_n04560804_15419.JPEG
alexnet,7,1113,NaN,bottle,bottle,cr,8793_cl_dnn_cr_bottle_40_n04560804_795.JPEG
alexnet,7,1114,NaN,bottle,bottle,cr,8794_cl_dnn_cr_bottle_40_n03983396_4415.JPEG
alexnet,7,1115,NaN,bottle,bottle,cr,8795_cl_dnn_cr_bottle_40_n03937543_1313.JPEG
alexnet,7,1116,NaN,bottle,bottle,cr,8796_cl_dnn_cr_bottle_40_n03983396_9940.JPEG
alexnet,7,1117,NaN,bottle,bottle,cr,8797_cl_dnn_cr_bottle_40_n02823428_7729.JPEG
alexnet,7,1118,NaN,bottle,bottle,cr,8798_cl_dnn_cr_bottle_40_n04560804_1641.JPEG
alexnet,7,1119,NaN,bottle,bottle,cr,8799_cl_dnn_cr_bottle_40_n04557648_9974.JPEG
alexnet,7,1120,NaN,bottle,bottle,cr,8800_cl_dnn_cr_bottle_40_n03983396_4736.JPEG
alexnet,7,1121,NaN,truck,truck,cr,8801_cl_dnn_cr_truck_40_n03796401_9156.JPEG
alexnet,7,1122,NaN,truck,truck,cr,8802_cl_dnn_cr_truck_40_n03796401_15673.JPEG
alexnet,7,1123,NaN,truck,truck,cr,8803_cl_dnn_cr_truck_40_n04467665_45202.JPEG
alexnet,7,1124,NaN,truck,truck,cr,8804_cl_dnn_cr_truck_40_n04467665_49656.JPEG
alexnet,7,1125,NaN,chair,truck,cr,8805_cl_dnn_cr_truck_40_n04467665_22637.JPEG
alexnet,7,1126,NaN,truck,truck,cr,8806_cl_dnn_cr_truck_40_n03417042_22.JPEG
alexnet,7,1127,NaN,truck,truck,cr,8807_cl_dnn_cr_truck_40_n03417042_11994.JPEG
alexnet,7,1128,NaN,truck,truck,cr,8808_cl_dnn_cr_truck_40_n03417042_1756.JPEG
alexnet,7,1129,NaN,truck,truck,cr,8809_cl_dnn_cr_truck_40_n03417042_2981.JPEG
alexnet,7,1130,NaN,truck,truck,cr,8810_cl_dnn_cr_truck_40_n04467665_65113.JPEG
alexnet,7,1131,NaN,truck,truck,cr,8811_cl_dnn_cr_truck_40_n04467665_1054.JPEG
alexnet,7,1132,NaN,truck,truck,cr,8812_cl_dnn_cr_truck_40_n03417042_411.JPEG
alexnet,7,1133,NaN,truck,truck,cr,8813_cl_dnn_cr_truck_40_n03796401_11167.JPEG
alexnet,7,1134,NaN,truck,truck,cr,8814_cl_dnn_cr_truck_40_n03417042_7469.JPEG
alexnet,7,1135,NaN,truck,truck,cr,8815_cl_dnn_cr_truck_40_n03796401_857.JPEG
alexnet,7,1136,NaN,truck,truck,cr,8816_cl_dnn_cr_truck_40_n03796401_2656.JPEG
alexnet,7,1137,NaN,truck,truck,cr,8817_cl_dnn_cr_truck_40_n04467665_23055.JPEG
alexnet,7,1138,NaN,truck,truck,cr,8818_cl_dnn_cr_truck_40_n04467665_1187.JPEG
alexnet,7,1139,NaN,truck,truck,cr,8819_cl_dnn_cr_truck_40_n04467665_30683.JPEG
alexnet,7,1140,NaN,truck,truck,cr,8820_cl_dnn_cr_truck_40_n04467665_10334.JPEG
alexnet,7,1141,NaN,truck,truck,cr,8821_cl_dnn_cr_truck_40_n03417042_4551.JPEG
alexnet,7,1142,NaN,truck,truck,cr,8822_cl_dnn_cr_truck_40_n04467665_67938.JPEG
alexnet,7,1143,NaN,truck,truck,cr,8823_cl_dnn_cr_truck_40_n04467665_375.JPEG
alexnet,7,1144,NaN,truck,truck,cr,8824_cl_dnn_cr_truck_40_n03417042_8688.JPEG
alexnet,7,1145,NaN,truck,truck,cr,8825_cl_dnn_cr_truck_40_n04467665_62621.JPEG
alexnet,7,1146,NaN,truck,truck,cr,8826_cl_dnn_cr_truck_40_n04467665_48953.JPEG
alexnet,7,1147,NaN,truck,truck,cr,8827_cl_dnn_cr_truck_40_n03417042_2103.JPEG
alexnet,7,1148,NaN,truck,truck,cr,8828_cl_dnn_cr_truck_40_n04467665_23112.JPEG
alexnet,7,1149,NaN,truck,truck,cr,8829_cl_dnn_cr_truck_40_n03417042_4391.JPEG
alexnet,7,1150,NaN,truck,truck,cr,8830_cl_dnn_cr_truck_40_n03417042_11779.JPEG
alexnet,7,1151,NaN,truck,truck,cr,8831_cl_dnn_cr_truck_40_n03796401_9181.JPEG
alexnet,7,1152,NaN,truck,truck,cr,8832_cl_dnn_cr_truck_40_n03417042_16149.JPEG
alexnet,7,1153,NaN,truck,truck,cr,8833_cl_dnn_cr_truck_40_n03796401_20379.JPEG
alexnet,7,1154,NaN,truck,truck,cr,8834_cl_dnn_cr_truck_40_n03796401_16366.JPEG
alexnet,7,1155,NaN,truck,truck,cr,8835_cl_dnn_cr_truck_40_n03796401_9105.JPEG
alexnet,7,1156,NaN,truck,truck,cr,8836_cl_dnn_cr_truck_40_n03796401_8399.JPEG
alexnet,7,1157,NaN,truck,truck,cr,8837_cl_dnn_cr_truck_40_n04467665_5951.JPEG
alexnet,7,1158,NaN,truck,truck,cr,8838_cl_dnn_cr_truck_40_n04467665_12820.JPEG
alexnet,7,1159,NaN,truck,truck,cr,8839_cl_dnn_cr_truck_40_n04467665_749.JPEG
alexnet,7,1160,NaN,truck,truck,cr,8840_cl_dnn_cr_truck_40_n03796401_6675.JPEG
alexnet,7,1161,NaN,truck,car,cr,8841_cl_dnn_cr_car_40_n04285008_4704.JPEG
alexnet,7,1162,NaN,car,car,cr,8842_cl_dnn_cr_car_40_n03100240_13582.JPEG
alexnet,7,1163,NaN,truck,car,cr,8843_cl_dnn_cr_car_40_n02814533_13496.JPEG
alexnet,7,1164,NaN,car,car,cr,8844_cl_dnn_cr_car_40_n04285008_12691.JPEG
alexnet,7,1165,NaN,car,car,cr,8845_cl_dnn_cr_car_40_n03100240_1066.JPEG
alexnet,7,1166,NaN,boat,car,cr,8846_cl_dnn_cr_car_40_n04285008_1841.JPEG
alexnet,7,1167,NaN,car,car,cr,8847_cl_dnn_cr_car_40_n04285008_15190.JPEG
alexnet,7,1168,NaN,car,car,cr,8848_cl_dnn_cr_car_40_n03100240_6948.JPEG
alexnet,7,1169,NaN,car,car,cr,8849_cl_dnn_cr_car_40_n04285008_1701.JPEG
alexnet,7,1170,NaN,car,car,cr,8850_cl_dnn_cr_car_40_n02814533_4374.JPEG
alexnet,7,1171,NaN,car,car,cr,8851_cl_dnn_cr_car_40_n04285008_1396.JPEG
alexnet,7,1172,NaN,car,car,cr,8852_cl_dnn_cr_car_40_n02814533_23466.JPEG
alexnet,7,1173,NaN,car,car,cr,8853_cl_dnn_cr_car_40_n04285008_9848.JPEG
alexnet,7,1174,NaN,car,car,cr,8854_cl_dnn_cr_car_40_n04285008_7904.JPEG
alexnet,7,1175,NaN,car,car,cr,8855_cl_dnn_cr_car_40_n03100240_1448.JPEG
alexnet,7,1176,NaN,truck,car,cr,8856_cl_dnn_cr_car_40_n04285008_7435.JPEG
alexnet,7,1177,NaN,car,car,cr,8857_cl_dnn_cr_car_40_n03100240_2909.JPEG
alexnet,7,1178,NaN,car,car,cr,8858_cl_dnn_cr_car_40_n02814533_7632.JPEG
alexnet,7,1179,NaN,car,car,cr,8859_cl_dnn_cr_car_40_n04285008_10223.JPEG
alexnet,7,1180,NaN,car,car,cr,8860_cl_dnn_cr_car_40_n03100240_2195.JPEG
alexnet,7,1181,NaN,car,car,cr,8861_cl_dnn_cr_car_40_n04285008_5503.JPEG
alexnet,7,1182,NaN,car,car,cr,8862_cl_dnn_cr_car_40_n02814533_42308.JPEG
alexnet,7,1183,NaN,car,car,cr,8863_cl_dnn_cr_car_40_n02814533_27929.JPEG
alexnet,7,1184,NaN,truck,car,cr,8864_cl_dnn_cr_car_40_n03100240_3373.JPEG
alexnet,7,1185,NaN,car,car,cr,8865_cl_dnn_cr_car_40_n04285008_3759.JPEG
alexnet,7,1186,NaN,truck,car,cr,8866_cl_dnn_cr_car_40_n04285008_8545.JPEG
alexnet,7,1187,NaN,car,car,cr,8867_cl_dnn_cr_car_40_n04285008_3559.JPEG
alexnet,7,1188,NaN,car,car,cr,8868_cl_dnn_cr_car_40_n03100240_6404.JPEG
alexnet,7,1189,NaN,car,car,cr,8869_cl_dnn_cr_car_40_n02814533_70922.JPEG
alexnet,7,1190,NaN,car,car,cr,8870_cl_dnn_cr_car_40_n04285008_13141.JPEG
alexnet,7,1191,NaN,car,car,cr,8871_cl_dnn_cr_car_40_n02814533_74685.JPEG
alexnet,7,1192,NaN,car,car,cr,8872_cl_dnn_cr_car_40_n03100240_4765.JPEG
alexnet,7,1193,NaN,car,car,cr,8873_cl_dnn_cr_car_40_n03100240_9389.JPEG
alexnet,7,1194,NaN,car,car,cr,8874_cl_dnn_cr_car_40_n02814533_73506.JPEG
alexnet,7,1195,NaN,car,car,cr,8875_cl_dnn_cr_car_40_n03100240_13842.JPEG
alexnet,7,1196,NaN,car,car,cr,8876_cl_dnn_cr_car_40_n03100240_3756.JPEG
alexnet,7,1197,NaN,car,car,cr,8877_cl_dnn_cr_car_40_n04285008_3096.JPEG
alexnet,7,1198,NaN,car,car,cr,8878_cl_dnn_cr_car_40_n03100240_1702.JPEG
alexnet,7,1199,NaN,car,car,cr,8879_cl_dnn_cr_car_40_n04285008_12927.JPEG
alexnet,7,1200,NaN,car,car,cr,8880_cl_dnn_cr_car_40_n02814533_20712.JPEG
alexnet,7,1201,NaN,bird,bird,cr,8881_cl_dnn_cr_bird_40_n02037110_4241.JPEG
alexnet,7,1202,NaN,bird,bird,cr,8882_cl_dnn_cr_bird_40_n01592084_7138.JPEG
alexnet,7,1203,NaN,bird,bird,cr,8883_cl_dnn_cr_bird_40_n02056570_9785.JPEG
alexnet,7,1204,NaN,bird,bird,cr,8884_cl_dnn_cr_bird_40_n01601694_8391.JPEG
alexnet,7,1205,NaN,bird,bird,cr,8885_cl_dnn_cr_bird_40_n01582220_178.JPEG
alexnet,7,1206,NaN,bird,bird,cr,8886_cl_dnn_cr_bird_40_n01558993_5713.JPEG
alexnet,7,1207,NaN,bird,bird,cr,8887_cl_dnn_cr_bird_40_n02037110_1683.JPEG
alexnet,7,1208,NaN,bird,bird,cr,8888_cl_dnn_cr_bird_40_n01582220_9944.JPEG
alexnet,7,1209,NaN,bird,bird,cr,8889_cl_dnn_cr_bird_40_n01532829_29328.JPEG
alexnet,7,1210,NaN,bird,bird,cr,8890_cl_dnn_cr_bird_40_n02011460_388.JPEG
alexnet,7,1211,NaN,bird,bird,cr,8891_cl_dnn_cr_bird_40_n02013706_1391.JPEG
alexnet,7,1212,NaN,bird,bird,cr,8892_cl_dnn_cr_bird_40_n02033041_14299.JPEG
alexnet,7,1213,NaN,bird,bird,cr,8893_cl_dnn_cr_bird_40_n01558993_1853.JPEG
alexnet,7,1214,NaN,bird,bird,cr,8894_cl_dnn_cr_bird_40_n01514859_5313.JPEG
alexnet,7,1215,NaN,bird,bird,cr,8895_cl_dnn_cr_bird_40_n02002556_5791.JPEG
alexnet,7,1216,NaN,bird,bird,cr,8896_cl_dnn_cr_bird_40_n02028035_455.JPEG
alexnet,7,1217,NaN,bird,bird,cr,8897_cl_dnn_cr_bird_40_n01560419_6884.JPEG
alexnet,7,1218,NaN,bird,bird,cr,8898_cl_dnn_cr_bird_40_n01532829_25250.JPEG
alexnet,7,1219,NaN,bird,bird,cr,8899_cl_dnn_cr_bird_40_n02051845_674.JPEG
alexnet,7,1220,NaN,bird,bird,cr,8900_cl_dnn_cr_bird_40_n01582220_33067.JPEG
alexnet,7,1221,NaN,bird,bird,cr,8901_cl_dnn_cr_bird_40_n02028035_2534.JPEG
alexnet,7,1222,NaN,bird,bird,cr,8902_cl_dnn_cr_bird_40_n02006656_6027.JPEG
alexnet,7,1223,NaN,bird,bird,cr,8903_cl_dnn_cr_bird_40_n02006656_2479.JPEG
alexnet,7,1224,NaN,bird,bird,cr,8904_cl_dnn_cr_bird_40_n01614925_5448.JPEG
alexnet,7,1225,NaN,bird,bird,cr,8905_cl_dnn_cr_bird_40_n02027492_2991.JPEG
alexnet,7,1226,NaN,bird,bird,cr,8906_cl_dnn_cr_bird_40_n02017213_4897.JPEG
alexnet,7,1227,NaN,bird,bird,cr,8907_cl_dnn_cr_bird_40_n01843383_7006.JPEG
alexnet,7,1228,NaN,bird,bird,cr,8908_cl_dnn_cr_bird_40_n01537544_7035.JPEG
alexnet,7,1229,NaN,bird,bird,cr,8909_cl_dnn_cr_bird_40_n02002724_3147.JPEG
alexnet,7,1230,NaN,bird,bird,cr,8910_cl_dnn_cr_bird_40_n01797886_17119.JPEG
alexnet,7,1231,NaN,bird,bird,cr,8911_cl_dnn_cr_bird_40_n02006656_10768.JPEG
alexnet,7,1232,NaN,bird,bird,cr,8912_cl_dnn_cr_bird_40_n01829413_368.JPEG
alexnet,7,1233,NaN,bird,bird,cr,8913_cl_dnn_cr_bird_40_n01829413_7001.JPEG
alexnet,7,1234,NaN,bird,bird,cr,8914_cl_dnn_cr_bird_40_n01819313_677.JPEG
alexnet,7,1235,NaN,bird,bird,cr,8915_cl_dnn_cr_bird_40_n01855032_2050.JPEG
alexnet,7,1236,NaN,bird,bird,cr,8916_cl_dnn_cr_bird_40_n01798484_8212.JPEG
alexnet,7,1237,NaN,bird,bird,cr,8917_cl_dnn_cr_bird_40_n02033041_699.JPEG
alexnet,7,1238,NaN,bird,bird,cr,8918_cl_dnn_cr_bird_40_n02033041_9537.JPEG
alexnet,7,1239,NaN,bird,bird,cr,8919_cl_dnn_cr_bird_40_n01530575_37289.JPEG
alexnet,7,1240,NaN,bird,bird,cr,8920_cl_dnn_cr_bird_40_n01843383_16953.JPEG
alexnet,7,1241,NaN,dog,dog,cr,8921_cl_dnn_cr_dog_40_n02100583_6969.JPEG
alexnet,7,1242,NaN,dog,dog,cr,8922_cl_dnn_cr_dog_40_n02113624_2473.JPEG
alexnet,7,1243,NaN,dog,dog,cr,8923_cl_dnn_cr_dog_40_n02108915_2413.JPEG
alexnet,7,1244,NaN,dog,dog,cr,8924_cl_dnn_cr_dog_40_n02099849_3742.JPEG
alexnet,7,1245,NaN,dog,dog,cr,8925_cl_dnn_cr_dog_40_n02113624_4045.JPEG
alexnet,7,1246,NaN,dog,dog,cr,8926_cl_dnn_cr_dog_40_n02101388_8914.JPEG
alexnet,7,1247,NaN,dog,dog,cr,8927_cl_dnn_cr_dog_40_n02091134_7465.JPEG
alexnet,7,1248,NaN,dog,dog,cr,8928_cl_dnn_cr_dog_40_n02101556_6632.JPEG
alexnet,7,1249,NaN,dog,dog,cr,8929_cl_dnn_cr_dog_40_n02097047_2948.JPEG
alexnet,7,1250,NaN,dog,dog,cr,8930_cl_dnn_cr_dog_40_n02102177_8638.JPEG
alexnet,7,1251,NaN,dog,dog,cr,8931_cl_dnn_cr_dog_40_n02108551_24955.JPEG
alexnet,7,1252,NaN,dog,dog,cr,8932_cl_dnn_cr_dog_40_n02095570_5365.JPEG
alexnet,7,1253,NaN,dog,dog,cr,8933_cl_dnn_cr_dog_40_n02091467_10198.JPEG
alexnet,7,1254,NaN,dog,dog,cr,8934_cl_dnn_cr_dog_40_n02099601_8521.JPEG
alexnet,7,1255,NaN,dog,dog,cr,8935_cl_dnn_cr_dog_40_n02098286_3098.JPEG
alexnet,7,1256,NaN,dog,dog,cr,8936_cl_dnn_cr_dog_40_n02094114_6213.JPEG
alexnet,7,1257,NaN,dog,dog,cr,8937_cl_dnn_cr_dog_40_n02091635_7088.JPEG
alexnet,7,1258,NaN,bird,dog,cr,8938_cl_dnn_cr_dog_40_n02099601_8036.JPEG
alexnet,7,1259,NaN,dog,dog,cr,8939_cl_dnn_cr_dog_40_n02088364_16003.JPEG
alexnet,7,1260,NaN,dog,dog,cr,8940_cl_dnn_cr_dog_40_n02108422_5488.JPEG
alexnet,7,1261,NaN,dog,dog,cr,8941_cl_dnn_cr_dog_40_n02113023_15838.JPEG
alexnet,7,1262,NaN,dog,dog,cr,8942_cl_dnn_cr_dog_40_n02093754_2319.JPEG
alexnet,7,1263,NaN,dog,dog,cr,8943_cl_dnn_cr_dog_40_n02107142_3881.JPEG
alexnet,7,1264,NaN,dog,dog,cr,8944_cl_dnn_cr_dog_40_n02110806_713.JPEG
alexnet,7,1265,NaN,dog,dog,cr,8945_cl_dnn_cr_dog_40_n02112018_7466.JPEG
alexnet,7,1266,NaN,dog,dog,cr,8946_cl_dnn_cr_dog_40_n02105162_452.JPEG
alexnet,7,1267,NaN,dog,dog,cr,8947_cl_dnn_cr_dog_40_n02106382_4140.JPEG
alexnet,7,1268,NaN,dog,dog,cr,8948_cl_dnn_cr_dog_40_n02104029_7823.JPEG
