subj,session,trial,rt,object_response,category,condition,imagename
alexnet,6,1,NaN,dog,knife,bw,6401_cl_dnn_bw_knife_40_n03041632_10999.JPEG
alexnet,6,2,NaN,knife,knife,bw,6402_cl_dnn_bw_knife_40_n03041632_10540.JPEG
alexnet,6,3,NaN,keyboard,knife,bw,6403_cl_dnn_bw_knife_40_n03041632_45264.JPEG
alexnet,6,4,NaN,chair,knife,bw,6404_cl_dnn_bw_knife_40_n03041632_84012.JPEG
alexnet,6,5,NaN,bottle,knife,bw,6405_cl_dnn_bw_knife_40_n03041632_5302.JPEG
alexnet,6,6,NaN,knife,knife,bw,6406_cl_dnn_bw_knife_40_n03041632_20707.JPEG
alexnet,6,7,NaN,knife,knife,bw,6407_cl_dnn_bw_knife_40_n03041632_32048.JPEG
alexnet,6,8,NaN,truck,knife,bw,6408_cl_dnn_bw_knife_40_n03041632_32177.JPEG
alexnet,6,9,NaN,bottle,knife,bw,6409_cl_dnn_bw_knife_40_n03041632_20433.JPEG
alexnet,6,10,NaN,cat,knife,bw,6410_cl_dnn_bw_knife_40_n03041632_32979.JPEG
alexnet,6,11,NaN,bottle,knife,bw,6411_cl_dnn_bw_knife_40_n03041632_3617.JPEG
alexnet,6,12,NaN,knife,knife,bw,6412_cl_dnn_bw_knife_40_n03041632_27575.JPEG
alexnet,6,13,NaN,knife,knife,bw,6413_cl_dnn_bw_knife_40_n03041632_102764.JPEG
alexnet,6,14,NaN,knife,knife,bw,6414_cl_dnn_bw_knife_40_n03041632_29920.JPEG
alexnet,6,15,NaN,bottle,knife,bw,6415_cl_dnn_bw_knife_40_n03041632_105581.JPEG
alexnet,6,16,NaN,knife,knife,bw,6416_cl_dnn_bw_knife_40_n03041632_26710.JPEG
alexnet,6,17,NaN,bottle,knife,bw,6417_cl_dnn_bw_knife_40_n03041632_52929.JPEG
alexnet,6,18,NaN,bottle,knife,bw,6418_cl_dnn_bw_knife_40_n03041632_22051.JPEG
alexnet,6,19,NaN,chair,knife,bw,6419_cl_dnn_bw_knife_40_n03041632_95293.JPEG
alexnet,6,20,NaN,knife,knife,bw,6420_cl_dnn_bw_knife_40_n03041632_42196.JPEG
alexnet,6,21,NaN,dog,knife,bw,6421_cl_dnn_bw_knife_40_n03041632_13194.JPEG
alexnet,6,22,NaN,knife,knife,bw,6422_cl_dnn_bw_knife_40_n03041632_7090.JPEG
alexnet,6,23,NaN,knife,knife,bw,6423_cl_dnn_bw_knife_40_n03041632_48816.JPEG
alexnet,6,24,NaN,knife,knife,bw,6424_cl_dnn_bw_knife_40_n03041632_30286.JPEG
alexnet,6,25,NaN,boat,knife,bw,6425_cl_dnn_bw_knife_40_n03041632_16206.JPEG
alexnet,6,26,NaN,knife,knife,bw,6426_cl_dnn_bw_knife_40_n03041632_2338.JPEG
alexnet,6,27,NaN,keyboard,knife,bw,6427_cl_dnn_bw_knife_40_n03041632_2319.JPEG
alexnet,6,28,NaN,knife,knife,bw,6428_cl_dnn_bw_knife_40_n03041632_3781.JPEG
alexnet,6,29,NaN,knife,knife,bw,6429_cl_dnn_bw_knife_40_n03041632_19275.JPEG
alexnet,6,30,NaN,knife,knife,bw,6430_cl_dnn_bw_knife_40_n03041632_21818.JPEG
alexnet,6,31,NaN,knife,knife,bw,6431_cl_dnn_bw_knife_40_n03041632_16172.JPEG
alexnet,6,32,NaN,knife,knife,bw,6432_cl_dnn_bw_knife_40_n03041632_26053.JPEG
alexnet,6,33,NaN,knife,knife,bw,6433_cl_dnn_bw_knife_40_n03041632_5801.JPEG
alexnet,6,34,NaN,bottle,knife,bw,6434_cl_dnn_bw_knife_40_n03041632_29338.JPEG
alexnet,6,35,NaN,knife,knife,bw,6435_cl_dnn_bw_knife_40_n03041632_36907.JPEG
alexnet,6,36,NaN,knife,knife,bw,6436_cl_dnn_bw_knife_40_n03041632_38610.JPEG
alexnet,6,37,NaN,knife,knife,bw,6437_cl_dnn_bw_knife_40_n03041632_21165.JPEG
alexnet,6,38,NaN,knife,knife,bw,6438_cl_dnn_bw_knife_40_n03041632_9580.JPEG
alexnet,6,39,NaN,bird,knife,bw,6439_cl_dnn_bw_knife_40_n03041632_29961.JPEG
alexnet,6,40,NaN,knife,knife,bw,6440_cl_dnn_bw_knife_40_n03041632_23803.JPEG
alexnet,6,41,NaN,keyboard,keyboard,bw,6441_cl_dnn_bw_keyboard_40_n04505470_5817.JPEG
alexnet,6,42,NaN,keyboard,keyboard,bw,6442_cl_dnn_bw_keyboard_40_n03085013_20805.JPEG
alexnet,6,43,NaN,keyboard,keyboard,bw,6443_cl_dnn_bw_keyboard_40_n04505470_1903.JPEG
alexnet,6,44,NaN,keyboard,keyboard,bw,6444_cl_dnn_bw_keyboard_40_n03085013_15887.JPEG
alexnet,6,45,NaN,dog,keyboard,bw,6445_cl_dnn_bw_keyboard_40_n03085013_23223.JPEG
alexnet,6,46,NaN,keyboard,keyboard,bw,6446_cl_dnn_bw_keyboard_40_n03085013_4673.JPEG
alexnet,6,47,NaN,keyboard,keyboard,bw,6447_cl_dnn_bw_keyboard_40_n04505470_4400.JPEG
alexnet,6,48,NaN,keyboard,keyboard,bw,6448_cl_dnn_bw_keyboard_40_n04505470_5024.JPEG
alexnet,6,49,NaN,keyboard,keyboard,bw,6449_cl_dnn_bw_keyboard_40_n03085013_24296.JPEG
alexnet,6,50,NaN,keyboard,keyboard,bw,6450_cl_dnn_bw_keyboard_40_n03085013_8334.JPEG
alexnet,6,51,NaN,keyboard,keyboard,bw,6451_cl_dnn_bw_keyboard_40_n03085013_4941.JPEG
alexnet,6,52,NaN,keyboard,keyboard,bw,6452_cl_dnn_bw_keyboard_40_n03085013_20359.JPEG
alexnet,6,53,NaN,keyboard,keyboard,bw,6453_cl_dnn_bw_keyboard_40_n03085013_18649.JPEG
alexnet,6,54,NaN,keyboard,keyboard,bw,6454_cl_dnn_bw_keyboard_40_n04505470_7421.JPEG
alexnet,6,55,NaN,keyboard,keyboard,bw,6455_cl_dnn_bw_keyboard_40_n04505470_2828.JPEG
alexnet,6,56,NaN,keyboard,keyboard,bw,6456_cl_dnn_bw_keyboard_40_n04505470_7736.JPEG
alexnet,6,57,NaN,keyboard,keyboard,bw,6457_cl_dnn_bw_keyboard_40_n04505470_550.JPEG
alexnet,6,58,NaN,bottle,keyboard,bw,6458_cl_dnn_bw_keyboard_40_n04505470_713.JPEG
alexnet,6,59,NaN,keyboard,keyboard,bw,6459_cl_dnn_bw_keyboard_40_n03085013_24455.JPEG
alexnet,6,60,NaN,keyboard,keyboard,bw,6460_cl_dnn_bw_keyboard_40_n04505470_9570.JPEG
alexnet,6,61,NaN,keyboard,keyboard,bw,6461_cl_dnn_bw_keyboard_40_n04505470_751.JPEG
alexnet,6,62,NaN,keyboard,keyboard,bw,6462_cl_dnn_bw_keyboard_40_n04505470_1929.JPEG
alexnet,6,63,NaN,keyboard,keyboard,bw,6463_cl_dnn_bw_keyboard_40_n03085013_23119.JPEG
alexnet,6,64,NaN,keyboard,keyboard,bw,6464_cl_dnn_bw_keyboard_40_n04505470_4803.JPEG
alexnet,6,65,NaN,keyboard,keyboard,bw,6465_cl_dnn_bw_keyboard_40_n04505470_4725.JPEG
alexnet,6,66,NaN,knife,keyboard,bw,6466_cl_dnn_bw_keyboard_40_n03085013_18781.JPEG
alexnet,6,67,NaN,keyboard,keyboard,bw,6467_cl_dnn_bw_keyboard_40_n04505470_4539.JPEG
alexnet,6,68,NaN,keyboard,keyboard,bw,6468_cl_dnn_bw_keyboard_40_n03085013_2061.JPEG
alexnet,6,69,NaN,keyboard,keyboard,bw,6469_cl_dnn_bw_keyboard_40_n04505470_4770.JPEG
alexnet,6,70,NaN,keyboard,keyboard,bw,6470_cl_dnn_bw_keyboard_40_n03085013_18854.JPEG
alexnet,6,71,NaN,keyboard,keyboard,bw,6471_cl_dnn_bw_keyboard_40_n04505470_3675.JPEG
alexnet,6,72,NaN,keyboard,keyboard,bw,6472_cl_dnn_bw_keyboard_40_n04505470_4682.JPEG
alexnet,6,73,NaN,keyboard,keyboard,bw,6473_cl_dnn_bw_keyboard_40_n04505470_4669.JPEG
alexnet,6,74,NaN,keyboard,keyboard,bw,6474_cl_dnn_bw_keyboard_40_n03085013_9653.JPEG
alexnet,6,75,NaN,keyboard,keyboard,bw,6475_cl_dnn_bw_keyboard_40_n03085013_17455.JPEG
alexnet,6,76,NaN,keyboard,keyboard,bw,6476_cl_dnn_bw_keyboard_40_n04505470_4534.JPEG
alexnet,6,77,NaN,keyboard,keyboard,bw,6477_cl_dnn_bw_keyboard_40_n03085013_22597.JPEG
alexnet,6,78,NaN,keyboard,keyboard,bw,6478_cl_dnn_bw_keyboard_40_n04505470_3852.JPEG
alexnet,6,79,NaN,keyboard,keyboard,bw,6479_cl_dnn_bw_keyboard_40_n03085013_18741.JPEG
alexnet,6,80,NaN,keyboard,keyboard,bw,6480_cl_dnn_bw_keyboard_40_n04505470_4487.JPEG
alexnet,6,81,NaN,elephant,elephant,bw,6481_cl_dnn_bw_elephant_40_n02504458_8889.JPEG
alexnet,6,82,NaN,dog,elephant,bw,6482_cl_dnn_bw_elephant_40_n02504013_22633.JPEG
alexnet,6,83,NaN,elephant,elephant,bw,6483_cl_dnn_bw_elephant_40_n02504458_12595.JPEG
alexnet,6,84,NaN,elephant,elephant,bw,6484_cl_dnn_bw_elephant_40_n02504013_5893.JPEG
alexnet,6,85,NaN,elephant,elephant,bw,6485_cl_dnn_bw_elephant_40_n02504013_2796.JPEG
alexnet,6,86,NaN,elephant,elephant,bw,6486_cl_dnn_bw_elephant_40_n02504458_337.JPEG
alexnet,6,87,NaN,dog,elephant,bw,6487_cl_dnn_bw_elephant_40_n02504013_10152.JPEG
alexnet,6,88,NaN,elephant,elephant,bw,6488_cl_dnn_bw_elephant_40_n02504458_5176.JPEG
alexnet,6,89,NaN,elephant,elephant,bw,6489_cl_dnn_bw_elephant_40_n02504013_9141.JPEG
alexnet,6,90,NaN,elephant,elephant,bw,6490_cl_dnn_bw_elephant_40_n02504458_585.JPEG
alexnet,6,91,NaN,dog,elephant,bw,6491_cl_dnn_bw_elephant_40_n02504013_4116.JPEG
alexnet,6,92,NaN,elephant,elephant,bw,6492_cl_dnn_bw_elephant_40_n02504458_8209.JPEG
alexnet,6,93,NaN,elephant,elephant,bw,6493_cl_dnn_bw_elephant_40_n02504458_7651.JPEG
alexnet,6,94,NaN,elephant,elephant,bw,6494_cl_dnn_bw_elephant_40_n02504458_12191.JPEG
alexnet,6,95,NaN,elephant,elephant,bw,6495_cl_dnn_bw_elephant_40_n02504458_2031.JPEG
alexnet,6,96,NaN,clock,elephant,bw,6496_cl_dnn_bw_elephant_40_n02504458_3146.JPEG
alexnet,6,97,NaN,elephant,elephant,bw,6497_cl_dnn_bw_elephant_40_n02504013_22388.JPEG
alexnet,6,98,NaN,elephant,elephant,bw,6498_cl_dnn_bw_elephant_40_n02504013_5390.JPEG
alexnet,6,99,NaN,dog,elephant,bw,6499_cl_dnn_bw_elephant_40_n02504013_7477.JPEG
alexnet,6,100,NaN,elephant,elephant,bw,6500_cl_dnn_bw_elephant_40_n02504013_7218.JPEG
alexnet,6,101,NaN,elephant,elephant,bw,6501_cl_dnn_bw_elephant_40_n02504458_873.JPEG
alexnet,6,102,NaN,elephant,elephant,bw,6502_cl_dnn_bw_elephant_40_n02504458_3292.JPEG
alexnet,6,103,NaN,elephant,elephant,bw,6503_cl_dnn_bw_elephant_40_n02504013_5890.JPEG
alexnet,6,104,NaN,elephant,elephant,bw,6504_cl_dnn_bw_elephant_40_n02504013_1243.JPEG
alexnet,6,105,NaN,elephant,elephant,bw,6505_cl_dnn_bw_elephant_40_n02504458_6510.JPEG
alexnet,6,106,NaN,elephant,elephant,bw,6506_cl_dnn_bw_elephant_40_n02504458_12239.JPEG
alexnet,6,107,NaN,elephant,elephant,bw,6507_cl_dnn_bw_elephant_40_n02504458_488.JPEG
alexnet,6,108,NaN,elephant,elephant,bw,6508_cl_dnn_bw_elephant_40_n02504458_4954.JPEG
alexnet,6,109,NaN,elephant,elephant,bw,6509_cl_dnn_bw_elephant_40_n02504013_1436.JPEG
alexnet,6,110,NaN,elephant,elephant,bw,6510_cl_dnn_bw_elephant_40_n02504013_6376.JPEG
alexnet,6,111,NaN,elephant,elephant,bw,6511_cl_dnn_bw_elephant_40_n02504458_7810.JPEG
alexnet,6,112,NaN,elephant,elephant,bw,6512_cl_dnn_bw_elephant_40_n02504458_6185.JPEG
alexnet,6,113,NaN,cat,elephant,bw,6513_cl_dnn_bw_elephant_40_n02504013_5864.JPEG
alexnet,6,114,NaN,elephant,elephant,bw,6514_cl_dnn_bw_elephant_40_n02504458_7477.JPEG
alexnet,6,115,NaN,elephant,elephant,bw,6515_cl_dnn_bw_elephant_40_n02504013_13097.JPEG
alexnet,6,116,NaN,elephant,elephant,bw,6516_cl_dnn_bw_elephant_40_n02504458_650.JPEG
alexnet,6,117,NaN,elephant,elephant,bw,6517_cl_dnn_bw_elephant_40_n02504013_1740.JPEG
alexnet,6,118,NaN,elephant,elephant,bw,6518_cl_dnn_bw_elephant_40_n02504458_4314.JPEG
alexnet,6,119,NaN,elephant,elephant,bw,6519_cl_dnn_bw_elephant_40_n02504013_1531.JPEG
alexnet,6,120,NaN,elephant,elephant,bw,6520_cl_dnn_bw_elephant_40_n02504013_1876.JPEG
alexnet,6,121,NaN,bicycle,bicycle,bw,6521_cl_dnn_bw_bicycle_40_n03792782_5416.JPEG
alexnet,6,122,NaN,bicycle,bicycle,bw,6522_cl_dnn_bw_bicycle_40_n03792782_33413.JPEG
alexnet,6,123,NaN,bicycle,bicycle,bw,6523_cl_dnn_bw_bicycle_40_n03792782_3759.JPEG
alexnet,6,124,NaN,bicycle,bicycle,bw,6524_cl_dnn_bw_bicycle_40_n03792782_374.JPEG
alexnet,6,125,NaN,dog,bicycle,bw,6525_cl_dnn_bw_bicycle_40_n03792782_14520.JPEG
alexnet,6,126,NaN,bird,bicycle,bw,6526_cl_dnn_bw_bicycle_40_n03792782_9280.JPEG
alexnet,6,127,NaN,bicycle,bicycle,bw,6527_cl_dnn_bw_bicycle_40_n02835271_5280.JPEG
alexnet,6,128,NaN,bicycle,bicycle,bw,6528_cl_dnn_bw_bicycle_40_n03792782_1344.JPEG
alexnet,6,129,NaN,bicycle,bicycle,bw,6529_cl_dnn_bw_bicycle_40_n03792782_11342.JPEG
alexnet,6,130,NaN,bicycle,bicycle,bw,6530_cl_dnn_bw_bicycle_40_n02835271_22958.JPEG
alexnet,6,131,NaN,bicycle,bicycle,bw,6531_cl_dnn_bw_bicycle_40_n03792782_49720.JPEG
alexnet,6,132,NaN,bicycle,bicycle,bw,6532_cl_dnn_bw_bicycle_40_n02835271_15216.JPEG
alexnet,6,133,NaN,bicycle,bicycle,bw,6533_cl_dnn_bw_bicycle_40_n03792782_18763.JPEG
alexnet,6,134,NaN,bicycle,bicycle,bw,6534_cl_dnn_bw_bicycle_40_n03792782_4447.JPEG
alexnet,6,135,NaN,bicycle,bicycle,bw,6535_cl_dnn_bw_bicycle_40_n03792782_11237.JPEG
alexnet,6,136,NaN,bicycle,bicycle,bw,6536_cl_dnn_bw_bicycle_40_n03792782_41992.JPEG
alexnet,6,137,NaN,bicycle,bicycle,bw,6537_cl_dnn_bw_bicycle_40_n03792782_11995.JPEG
alexnet,6,138,NaN,bicycle,bicycle,bw,6538_cl_dnn_bw_bicycle_40_n03792782_9205.JPEG
alexnet,6,139,NaN,bicycle,bicycle,bw,6539_cl_dnn_bw_bicycle_40_n02835271_3815.JPEG
alexnet,6,140,NaN,bicycle,bicycle,bw,6540_cl_dnn_bw_bicycle_40_n02835271_7259.JPEG
alexnet,6,141,NaN,bicycle,bicycle,bw,6541_cl_dnn_bw_bicycle_40_n02835271_14846.JPEG
alexnet,6,142,NaN,bicycle,bicycle,bw,6542_cl_dnn_bw_bicycle_40_n03792782_26210.JPEG
alexnet,6,143,NaN,bicycle,bicycle,bw,6543_cl_dnn_bw_bicycle_40_n03792782_6250.JPEG
alexnet,6,144,NaN,bicycle,bicycle,bw,6544_cl_dnn_bw_bicycle_40_n02835271_31.JPEG
alexnet,6,145,NaN,bicycle,bicycle,bw,6545_cl_dnn_bw_bicycle_40_n02835271_2142.JPEG
alexnet,6,146,NaN,bicycle,bicycle,bw,6546_cl_dnn_bw_bicycle_40_n02835271_5861.JPEG
alexnet,6,147,NaN,bicycle,bicycle,bw,6547_cl_dnn_bw_bicycle_40_n02835271_4534.JPEG
alexnet,6,148,NaN,bicycle,bicycle,bw,6548_cl_dnn_bw_bicycle_40_n02835271_7156.JPEG
alexnet,6,149,NaN,bicycle,bicycle,bw,6549_cl_dnn_bw_bicycle_40_n02835271_22263.JPEG
alexnet,6,150,NaN,bicycle,bicycle,bw,6550_cl_dnn_bw_bicycle_40_n02835271_747.JPEG
alexnet,6,151,NaN,bicycle,bicycle,bw,6551_cl_dnn_bw_bicycle_40_n02835271_23237.JPEG
alexnet,6,152,NaN,bicycle,bicycle,bw,6552_cl_dnn_bw_bicycle_40_n03792782_6083.JPEG
alexnet,6,153,NaN,bicycle,bicycle,bw,6553_cl_dnn_bw_bicycle_40_n03792782_16844.JPEG
alexnet,6,154,NaN,bicycle,bicycle,bw,6554_cl_dnn_bw_bicycle_40_n02835271_8975.JPEG
alexnet,6,155,NaN,bicycle,bicycle,bw,6555_cl_dnn_bw_bicycle_40_n03792782_3295.JPEG
alexnet,6,156,NaN,bicycle,bicycle,bw,6556_cl_dnn_bw_bicycle_40_n02835271_20149.JPEG
alexnet,6,157,NaN,bicycle,bicycle,bw,6557_cl_dnn_bw_bicycle_40_n02835271_1975.JPEG
alexnet,6,158,NaN,bicycle,bicycle,bw,6558_cl_dnn_bw_bicycle_40_n03792782_17549.JPEG
alexnet,6,159,NaN,bicycle,bicycle,bw,6559_cl_dnn_bw_bicycle_40_n02835271_9396.JPEG
alexnet,6,160,NaN,bicycle,bicycle,bw,6560_cl_dnn_bw_bicycle_40_n03792782_7568.JPEG
alexnet,6,161,NaN,airplane,airplane,bw,6561_cl_dnn_bw_airplane_40_n02690373_5869.JPEG
alexnet,6,162,NaN,airplane,airplane,bw,6562_cl_dnn_bw_airplane_40_n02690373_18845.JPEG
alexnet,6,163,NaN,airplane,airplane,bw,6563_cl_dnn_bw_airplane_40_n02690373_3729.JPEG
alexnet,6,164,NaN,airplane,airplane,bw,6564_cl_dnn_bw_airplane_40_n02690373_4175.JPEG
alexnet,6,165,NaN,airplane,airplane,bw,6565_cl_dnn_bw_airplane_40_n02690373_4402.JPEG
alexnet,6,166,NaN,airplane,airplane,bw,6566_cl_dnn_bw_airplane_40_n02690373_2796.JPEG
alexnet,6,167,NaN,airplane,airplane,bw,6567_cl_dnn_bw_airplane_40_n02690373_6655.JPEG
alexnet,6,168,NaN,airplane,airplane,bw,6568_cl_dnn_bw_airplane_40_n02690373_2675.JPEG
alexnet,6,169,NaN,airplane,airplane,bw,6569_cl_dnn_bw_airplane_40_n02690373_2867.JPEG
alexnet,6,170,NaN,airplane,airplane,bw,6570_cl_dnn_bw_airplane_40_n02690373_4064.JPEG
alexnet,6,171,NaN,airplane,airplane,bw,6571_cl_dnn_bw_airplane_40_n02690373_7118.JPEG
alexnet,6,172,NaN,airplane,airplane,bw,6572_cl_dnn_bw_airplane_40_n02690373_20042.JPEG
alexnet,6,173,NaN,airplane,airplane,bw,6573_cl_dnn_bw_airplane_40_n02690373_1169.JPEG
alexnet,6,174,NaN,airplane,airplane,bw,6574_cl_dnn_bw_airplane_40_n02690373_17603.JPEG
alexnet,6,175,NaN,airplane,airplane,bw,6575_cl_dnn_bw_airplane_40_n02690373_2874.JPEG
alexnet,6,176,NaN,airplane,airplane,bw,6576_cl_dnn_bw_airplane_40_n02690373_8650.JPEG
alexnet,6,177,NaN,airplane,airplane,bw,6577_cl_dnn_bw_airplane_40_n02690373_7072.JPEG
alexnet,6,178,NaN,airplane,airplane,bw,6578_cl_dnn_bw_airplane_40_n02690373_3090.JPEG
alexnet,6,179,NaN,airplane,airplane,bw,6579_cl_dnn_bw_airplane_40_n02690373_4306.JPEG
alexnet,6,180,NaN,airplane,airplane,bw,6580_cl_dnn_bw_airplane_40_n02690373_748.JPEG
alexnet,6,181,NaN,airplane,airplane,bw,6581_cl_dnn_bw_airplane_40_n02690373_5870.JPEG
alexnet,6,182,NaN,airplane,airplane,bw,6582_cl_dnn_bw_airplane_40_n02690373_194.JPEG
alexnet,6,183,NaN,airplane,airplane,bw,6583_cl_dnn_bw_airplane_40_n02690373_10203.JPEG
alexnet,6,184,NaN,airplane,airplane,bw,6584_cl_dnn_bw_airplane_40_n02690373_6567.JPEG
alexnet,6,185,NaN,airplane,airplane,bw,6585_cl_dnn_bw_airplane_40_n02690373_1986.JPEG
alexnet,6,186,NaN,airplane,airplane,bw,6586_cl_dnn_bw_airplane_40_n02690373_3173.JPEG
alexnet,6,187,NaN,airplane,airplane,bw,6587_cl_dnn_bw_airplane_40_n02690373_5075.JPEG
alexnet,6,188,NaN,airplane,airplane,bw,6588_cl_dnn_bw_airplane_40_n02690373_12984.JPEG
alexnet,6,189,NaN,airplane,airplane,bw,6589_cl_dnn_bw_airplane_40_n02690373_7685.JPEG
alexnet,6,190,NaN,airplane,airplane,bw,6590_cl_dnn_bw_airplane_40_n02690373_2758.JPEG
alexnet,6,191,NaN,airplane,airplane,bw,6591_cl_dnn_bw_airplane_40_n02690373_1434.JPEG
alexnet,6,192,NaN,airplane,airplane,bw,6592_cl_dnn_bw_airplane_40_n02690373_1862.JPEG
alexnet,6,193,NaN,airplane,airplane,bw,6593_cl_dnn_bw_airplane_40_n02690373_12044.JPEG
alexnet,6,194,NaN,airplane,airplane,bw,6594_cl_dnn_bw_airplane_40_n02690373_427.JPEG
alexnet,6,195,NaN,airplane,airplane,bw,6595_cl_dnn_bw_airplane_40_n02690373_7496.JPEG
alexnet,6,196,NaN,airplane,airplane,bw,6596_cl_dnn_bw_airplane_40_n02690373_1854.JPEG
alexnet,6,197,NaN,airplane,airplane,bw,6597_cl_dnn_bw_airplane_40_n02690373_2498.JPEG
alexnet,6,198,NaN,airplane,airplane,bw,6598_cl_dnn_bw_airplane_40_n02690373_4105.JPEG
alexnet,6,199,NaN,airplane,airplane,bw,6599_cl_dnn_bw_airplane_40_n02690373_7293.JPEG
alexnet,6,200,NaN,airplane,airplane,bw,6600_cl_dnn_bw_airplane_40_n02690373_6856.JPEG
alexnet,6,201,NaN,chair,clock,bw,6601_cl_dnn_bw_clock_40_n03196217_276.JPEG
alexnet,6,202,NaN,clock,clock,bw,6602_cl_dnn_bw_clock_40_n03196217_3039.JPEG
alexnet,6,203,NaN,clock,clock,bw,6603_cl_dnn_bw_clock_40_n02708093_5030.JPEG
alexnet,6,204,NaN,clock,clock,bw,6604_cl_dnn_bw_clock_40_n02708093_1372.JPEG
alexnet,6,205,NaN,clock,clock,bw,6605_cl_dnn_bw_clock_40_n03196217_1792.JPEG
alexnet,6,206,NaN,clock,clock,bw,6606_cl_dnn_bw_clock_40_n03196217_11320.JPEG
alexnet,6,207,NaN,clock,clock,bw,6607_cl_dnn_bw_clock_40_n02708093_1209.JPEG
alexnet,6,208,NaN,clock,clock,bw,6608_cl_dnn_bw_clock_40_n04548280_3093.JPEG
alexnet,6,209,NaN,clock,clock,bw,6609_cl_dnn_bw_clock_40_n02708093_628.JPEG
alexnet,6,210,NaN,clock,clock,bw,6610_cl_dnn_bw_clock_40_n04548280_9473.JPEG
alexnet,6,211,NaN,clock,clock,bw,6611_cl_dnn_bw_clock_40_n02708093_3695.JPEG
alexnet,6,212,NaN,chair,clock,bw,6612_cl_dnn_bw_clock_40_n03196217_2414.JPEG
alexnet,6,213,NaN,clock,clock,bw,6613_cl_dnn_bw_clock_40_n04548280_8162.JPEG
alexnet,6,214,NaN,clock,clock,bw,6614_cl_dnn_bw_clock_40_n03196217_44.JPEG
alexnet,6,215,NaN,clock,clock,bw,6615_cl_dnn_bw_clock_40_n04548280_10686.JPEG
alexnet,6,216,NaN,clock,clock,bw,6616_cl_dnn_bw_clock_40_n03196217_11035.JPEG
alexnet,6,217,NaN,dog,clock,bw,6617_cl_dnn_bw_clock_40_n03196217_7353.JPEG
alexnet,6,218,NaN,clock,clock,bw,6618_cl_dnn_bw_clock_40_n04548280_1630.JPEG
alexnet,6,219,NaN,clock,clock,bw,6619_cl_dnn_bw_clock_40_n03196217_13429.JPEG
alexnet,6,220,NaN,clock,clock,bw,6620_cl_dnn_bw_clock_40_n04548280_7210.JPEG
alexnet,6,221,NaN,clock,clock,bw,6621_cl_dnn_bw_clock_40_n03196217_8887.JPEG
alexnet,6,222,NaN,clock,clock,bw,6622_cl_dnn_bw_clock_40_n04548280_1053.JPEG
alexnet,6,223,NaN,clock,clock,bw,6623_cl_dnn_bw_clock_40_n02708093_2178.JPEG
alexnet,6,224,NaN,bottle,clock,bw,6624_cl_dnn_bw_clock_40_n03196217_6348.JPEG
alexnet,6,225,NaN,clock,clock,bw,6625_cl_dnn_bw_clock_40_n02708093_2041.JPEG
alexnet,6,226,NaN,clock,clock,bw,6626_cl_dnn_bw_clock_40_n02708093_92.JPEG
alexnet,6,227,NaN,clock,clock,bw,6627_cl_dnn_bw_clock_40_n04548280_3303.JPEG
alexnet,6,228,NaN,clock,clock,bw,6628_cl_dnn_bw_clock_40_n02708093_4040.JPEG
alexnet,6,229,NaN,clock,clock,bw,6629_cl_dnn_bw_clock_40_n04548280_8454.JPEG
alexnet,6,230,NaN,clock,clock,bw,6630_cl_dnn_bw_clock_40_n03196217_71.JPEG
alexnet,6,231,NaN,clock,clock,bw,6631_cl_dnn_bw_clock_40_n03196217_367.JPEG
alexnet,6,232,NaN,clock,clock,bw,6632_cl_dnn_bw_clock_40_n03196217_6257.JPEG
alexnet,6,233,NaN,clock,clock,bw,6633_cl_dnn_bw_clock_40_n02708093_485.JPEG
alexnet,6,234,NaN,clock,clock,bw,6634_cl_dnn_bw_clock_40_n04548280_1146.JPEG
alexnet,6,235,NaN,clock,clock,bw,6635_cl_dnn_bw_clock_40_n02708093_8179.JPEG
alexnet,6,236,NaN,clock,clock,bw,6636_cl_dnn_bw_clock_40_n03196217_3608.JPEG
alexnet,6,237,NaN,clock,clock,bw,6637_cl_dnn_bw_clock_40_n04548280_3864.JPEG
alexnet,6,238,NaN,clock,clock,bw,6638_cl_dnn_bw_clock_40_n02708093_1400.JPEG
alexnet,6,239,NaN,clock,clock,bw,6639_cl_dnn_bw_clock_40_n02708093_2420.JPEG
alexnet,6,240,NaN,clock,clock,bw,6640_cl_dnn_bw_clock_40_n02708093_5236.JPEG
alexnet,6,241,NaN,oven,oven,bw,6641_cl_dnn_bw_oven_40_n04111531_2770.JPEG
alexnet,6,242,NaN,oven,oven,bw,6642_cl_dnn_bw_oven_40_n04111531_9613.JPEG
alexnet,6,243,NaN,boat,oven,bw,6643_cl_dnn_bw_oven_40_n04111531_8344.JPEG
alexnet,6,244,NaN,keyboard,oven,bw,6644_cl_dnn_bw_oven_40_n04111531_9490.JPEG
alexnet,6,245,NaN,oven,oven,bw,6645_cl_dnn_bw_oven_40_n04111531_6393.JPEG
alexnet,6,246,NaN,oven,oven,bw,6646_cl_dnn_bw_oven_40_n04111531_1970.JPEG
alexnet,6,247,NaN,oven,oven,bw,6647_cl_dnn_bw_oven_40_n04111531_22872.JPEG
alexnet,6,248,NaN,bird,oven,bw,6648_cl_dnn_bw_oven_40_n04111531_10093.JPEG
alexnet,6,249,NaN,keyboard,oven,bw,6649_cl_dnn_bw_oven_40_n04111531_4817.JPEG
alexnet,6,250,NaN,oven,oven,bw,6650_cl_dnn_bw_oven_40_n04111531_18245.JPEG
alexnet,6,251,NaN,oven,oven,bw,6651_cl_dnn_bw_oven_40_n04111531_6533.JPEG
alexnet,6,252,NaN,oven,oven,bw,6652_cl_dnn_bw_oven_40_n04111531_23907.JPEG
alexnet,6,253,NaN,oven,oven,bw,6653_cl_dnn_bw_oven_40_n04111531_5727.JPEG
alexnet,6,254,NaN,boat,oven,bw,6654_cl_dnn_bw_oven_40_n04111531_7600.JPEG
alexnet,6,255,NaN,oven,oven,bw,6655_cl_dnn_bw_oven_40_n04111531_845.JPEG
alexnet,6,256,NaN,oven,oven,bw,6656_cl_dnn_bw_oven_40_n04111531_20369.JPEG
alexnet,6,257,NaN,oven,oven,bw,6657_cl_dnn_bw_oven_40_n04111531_13101.JPEG
alexnet,6,258,NaN,oven,oven,bw,6658_cl_dnn_bw_oven_40_n04111531_2630.JPEG
alexnet,6,259,NaN,bird,oven,bw,6659_cl_dnn_bw_oven_40_n04111531_25647.JPEG
alexnet,6,260,NaN,oven,oven,bw,6660_cl_dnn_bw_oven_40_n04111531_16007.JPEG
alexnet,6,261,NaN,oven,oven,bw,6661_cl_dnn_bw_oven_40_n04111531_7067.JPEG
alexnet,6,262,NaN,oven,oven,bw,6662_cl_dnn_bw_oven_40_n04111531_13560.JPEG
alexnet,6,263,NaN,truck,oven,bw,6663_cl_dnn_bw_oven_40_n04111531_5802.JPEG
alexnet,6,264,NaN,oven,oven,bw,6664_cl_dnn_bw_oven_40_n04111531_15052.JPEG
alexnet,6,265,NaN,oven,oven,bw,6665_cl_dnn_bw_oven_40_n04111531_12903.JPEG
alexnet,6,266,NaN,oven,oven,bw,6666_cl_dnn_bw_oven_40_n04111531_452.JPEG
alexnet,6,267,NaN,oven,oven,bw,6667_cl_dnn_bw_oven_40_n04111531_1439.JPEG
alexnet,6,268,NaN,oven,oven,bw,6668_cl_dnn_bw_oven_40_n04111531_8353.JPEG
alexnet,6,269,NaN,oven,oven,bw,6669_cl_dnn_bw_oven_40_n04111531_9429.JPEG
alexnet,6,270,NaN,oven,oven,bw,6670_cl_dnn_bw_oven_40_n04111531_9123.JPEG
alexnet,6,271,NaN,oven,oven,bw,6671_cl_dnn_bw_oven_40_n04111531_14611.JPEG
alexnet,6,272,NaN,oven,oven,bw,6672_cl_dnn_bw_oven_40_n04111531_15317.JPEG
alexnet,6,273,NaN,oven,oven,bw,6673_cl_dnn_bw_oven_40_n04111531_15683.JPEG
alexnet,6,274,NaN,chair,oven,bw,6674_cl_dnn_bw_oven_40_n04111531_1855.JPEG
alexnet,6,275,NaN,oven,oven,bw,6675_cl_dnn_bw_oven_40_n04111531_2960.JPEG
alexnet,6,276,NaN,oven,oven,bw,6676_cl_dnn_bw_oven_40_n04111531_14568.JPEG
alexnet,6,277,NaN,oven,oven,bw,6677_cl_dnn_bw_oven_40_n04111531_82.JPEG
alexnet,6,278,NaN,oven,oven,bw,6678_cl_dnn_bw_oven_40_n04111531_16251.JPEG
alexnet,6,279,NaN,dog,oven,bw,6679_cl_dnn_bw_oven_40_n04111531_4918.JPEG
alexnet,6,280,NaN,oven,oven,bw,6680_cl_dnn_bw_oven_40_n04111531_2662.JPEG
alexnet,6,281,NaN,bottle,chair,bw,6681_cl_dnn_bw_chair_40_n04429376_21254.JPEG
alexnet,6,282,NaN,chair,chair,bw,6682_cl_dnn_bw_chair_40_n04429376_19616.JPEG
alexnet,6,283,NaN,chair,chair,bw,6683_cl_dnn_bw_chair_40_n03376595_6864.JPEG
alexnet,6,284,NaN,chair,chair,bw,6684_cl_dnn_bw_chair_40_n03376595_6704.JPEG
alexnet,6,285,NaN,chair,chair,bw,6685_cl_dnn_bw_chair_40_n04429376_6954.JPEG
alexnet,6,286,NaN,chair,chair,bw,6686_cl_dnn_bw_chair_40_n03376595_9142.JPEG
alexnet,6,287,NaN,chair,chair,bw,6687_cl_dnn_bw_chair_40_n02791124_12486.JPEG
alexnet,6,288,NaN,chair,chair,bw,6688_cl_dnn_bw_chair_40_n02791124_462.JPEG
alexnet,6,289,NaN,chair,chair,bw,6689_cl_dnn_bw_chair_40_n02791124_3506.JPEG
alexnet,6,290,NaN,chair,chair,bw,6690_cl_dnn_bw_chair_40_n02791124_5898.JPEG
alexnet,6,291,NaN,chair,chair,bw,6691_cl_dnn_bw_chair_40_n02791124_6082.JPEG
alexnet,6,292,NaN,chair,chair,bw,6692_cl_dnn_bw_chair_40_n04429376_1041.JPEG
alexnet,6,293,NaN,chair,chair,bw,6693_cl_dnn_bw_chair_40_n02791124_117.JPEG
alexnet,6,294,NaN,chair,chair,bw,6694_cl_dnn_bw_chair_40_n04099969_1231.JPEG
alexnet,6,295,NaN,chair,chair,bw,6695_cl_dnn_bw_chair_40_n03376595_4745.JPEG
alexnet,6,296,NaN,chair,chair,bw,6696_cl_dnn_bw_chair_40_n04099969_6913.JPEG
alexnet,6,297,NaN,chair,chair,bw,6697_cl_dnn_bw_chair_40_n04429376_11212.JPEG
alexnet,6,298,NaN,chair,chair,bw,6698_cl_dnn_bw_chair_40_n02791124_5099.JPEG
alexnet,6,299,NaN,bicycle,chair,bw,6699_cl_dnn_bw_chair_40_n03376595_438.JPEG
alexnet,6,300,NaN,bottle,chair,bw,6700_cl_dnn_bw_chair_40_n02791124_15564.JPEG
alexnet,6,301,NaN,chair,chair,bw,6701_cl_dnn_bw_chair_40_n02791124_499.JPEG
alexnet,6,302,NaN,chair,chair,bw,6702_cl_dnn_bw_chair_40_n02791124_2091.JPEG
alexnet,6,303,NaN,chair,chair,bw,6703_cl_dnn_bw_chair_40_n04429376_12023.JPEG
alexnet,6,304,NaN,chair,chair,bw,6704_cl_dnn_bw_chair_40_n04099969_15094.JPEG
alexnet,6,305,NaN,chair,chair,bw,6705_cl_dnn_bw_chair_40_n04429376_21683.JPEG
alexnet,6,306,NaN,chair,chair,bw,6706_cl_dnn_bw_chair_40_n03376595_17854.JPEG
alexnet,6,307,NaN,chair,chair,bw,6707_cl_dnn_bw_chair_40_n02791124_6796.JPEG
alexnet,6,308,NaN,chair,chair,bw,6708_cl_dnn_bw_chair_40_n02791124_8711.JPEG
alexnet,6,309,NaN,chair,chair,bw,6709_cl_dnn_bw_chair_40_n04099969_2540.JPEG
alexnet,6,310,NaN,chair,chair,bw,6710_cl_dnn_bw_chair_40_n02791124_4640.JPEG
alexnet,6,311,NaN,chair,chair,bw,6711_cl_dnn_bw_chair_40_n04099969_44308.JPEG
alexnet,6,312,NaN,chair,chair,bw,6712_cl_dnn_bw_chair_40_n02791124_1814.JPEG
alexnet,6,313,NaN,chair,chair,bw,6713_cl_dnn_bw_chair_40_n02791124_7019.JPEG
alexnet,6,314,NaN,chair,chair,bw,6714_cl_dnn_bw_chair_40_n03376595_8148.JPEG
alexnet,6,315,NaN,chair,chair,bw,6715_cl_dnn_bw_chair_40_n04099969_57057.JPEG
alexnet,6,316,NaN,chair,chair,bw,6716_cl_dnn_bw_chair_40_n03376595_1943.JPEG
alexnet,6,317,NaN,chair,chair,bw,6717_cl_dnn_bw_chair_40_n04099969_24055.JPEG
alexnet,6,318,NaN,chair,chair,bw,6718_cl_dnn_bw_chair_40_n04099969_14537.JPEG
alexnet,6,319,NaN,chair,chair,bw,6719_cl_dnn_bw_chair_40_n03376595_14765.JPEG
alexnet,6,320,NaN,chair,chair,bw,6720_cl_dnn_bw_chair_40_n03376595_5503.JPEG
alexnet,6,321,NaN,bear,bear,bw,6721_cl_dnn_bw_bear_40_n02132136_71.JPEG
alexnet,6,322,NaN,bear,bear,bw,6722_cl_dnn_bw_bear_40_n02134084_15913.JPEG
alexnet,6,323,NaN,bear,bear,bw,6723_cl_dnn_bw_bear_40_n02134084_22323.JPEG
alexnet,6,324,NaN,bear,bear,bw,6724_cl_dnn_bw_bear_40_n02133161_1241.JPEG
alexnet,6,325,NaN,bear,bear,bw,6725_cl_dnn_bw_bear_40_n02134084_8363.JPEG
alexnet,6,326,NaN,bear,bear,bw,6726_cl_dnn_bw_bear_40_n02133161_1871.JPEG
alexnet,6,327,NaN,dog,bear,bw,6727_cl_dnn_bw_bear_40_n02134418_4917.JPEG
alexnet,6,328,NaN,bear,bear,bw,6728_cl_dnn_bw_bear_40_n02132136_20996.JPEG
alexnet,6,329,NaN,bear,bear,bw,6729_cl_dnn_bw_bear_40_n02134418_936.JPEG
alexnet,6,330,NaN,bear,bear,bw,6730_cl_dnn_bw_bear_40_n02134084_8111.JPEG
alexnet,6,331,NaN,bear,bear,bw,6731_cl_dnn_bw_bear_40_n02132136_12060.JPEG
alexnet,6,332,NaN,dog,bear,bw,6732_cl_dnn_bw_bear_40_n02132136_4566.JPEG
alexnet,6,333,NaN,bear,bear,bw,6733_cl_dnn_bw_bear_40_n02133161_4165.JPEG
alexnet,6,334,NaN,bear,bear,bw,6734_cl_dnn_bw_bear_40_n02134084_3490.JPEG
alexnet,6,335,NaN,dog,bear,bw,6735_cl_dnn_bw_bear_40_n02132136_7184.JPEG
alexnet,6,336,NaN,bear,bear,bw,6736_cl_dnn_bw_bear_40_n02134418_1814.JPEG
alexnet,6,337,NaN,dog,bear,bw,6737_cl_dnn_bw_bear_40_n02134418_3858.JPEG
alexnet,6,338,NaN,bear,bear,bw,6738_cl_dnn_bw_bear_40_n02134084_20361.JPEG
alexnet,6,339,NaN,bear,bear,bw,6739_cl_dnn_bw_bear_40_n02133161_7939.JPEG
alexnet,6,340,NaN,bear,bear,bw,6740_cl_dnn_bw_bear_40_n02132136_12391.JPEG
alexnet,6,341,NaN,bear,bear,bw,6741_cl_dnn_bw_bear_40_n02134418_5464.JPEG
alexnet,6,342,NaN,bear,bear,bw,6742_cl_dnn_bw_bear_40_n02132136_24595.JPEG
alexnet,6,343,NaN,cat,bear,bw,6743_cl_dnn_bw_bear_40_n02134418_5962.JPEG
alexnet,6,344,NaN,clock,bear,bw,6744_cl_dnn_bw_bear_40_n02134084_18517.JPEG
alexnet,6,345,NaN,bear,bear,bw,6745_cl_dnn_bw_bear_40_n02134418_664.JPEG
alexnet,6,346,NaN,bear,bear,bw,6746_cl_dnn_bw_bear_40_n02132136_860.JPEG
alexnet,6,347,NaN,bear,bear,bw,6747_cl_dnn_bw_bear_40_n02133161_9138.JPEG
alexnet,6,348,NaN,bear,bear,bw,6748_cl_dnn_bw_bear_40_n02133161_16068.JPEG
alexnet,6,349,NaN,bear,bear,bw,6749_cl_dnn_bw_bear_40_n02133161_15473.JPEG
alexnet,6,350,NaN,bear,bear,bw,6750_cl_dnn_bw_bear_40_n02133161_3181.JPEG
alexnet,6,351,NaN,bear,bear,bw,6751_cl_dnn_bw_bear_40_n02133161_5064.JPEG
alexnet,6,352,NaN,bear,bear,bw,6752_cl_dnn_bw_bear_40_n02134418_397.JPEG
alexnet,6,353,NaN,bear,bear,bw,6753_cl_dnn_bw_bear_40_n02134084_6748.JPEG
alexnet,6,354,NaN,bear,bear,bw,6754_cl_dnn_bw_bear_40_n02134084_17001.JPEG
alexnet,6,355,NaN,bear,bear,bw,6755_cl_dnn_bw_bear_40_n02132136_22840.JPEG
alexnet,6,356,NaN,bear,bear,bw,6756_cl_dnn_bw_bear_40_n02134084_33400.JPEG
alexnet,6,357,NaN,dog,bear,bw,6757_cl_dnn_bw_bear_40_n02134418_5109.JPEG
alexnet,6,358,NaN,bear,bear,bw,6758_cl_dnn_bw_bear_40_n02132136_580.JPEG
alexnet,6,359,NaN,bear,bear,bw,6759_cl_dnn_bw_bear_40_n02132136_1889.JPEG
alexnet,6,360,NaN,dog,bear,bw,6760_cl_dnn_bw_bear_40_n02134084_3383.JPEG
alexnet,6,361,NaN,boat,boat,bw,6761_cl_dnn_bw_boat_40_n02951358_33076.JPEG
alexnet,6,362,NaN,boat,boat,bw,6762_cl_dnn_bw_boat_40_n04612504_1500.JPEG
alexnet,6,363,NaN,boat,boat,bw,6763_cl_dnn_bw_boat_40_n03344393_6519.JPEG
alexnet,6,364,NaN,boat,boat,bw,6764_cl_dnn_bw_boat_40_n03662601_7626.JPEG
alexnet,6,365,NaN,boat,boat,bw,6765_cl_dnn_bw_boat_40_n02951358_22332.JPEG
alexnet,6,366,NaN,boat,boat,bw,6766_cl_dnn_bw_boat_40_n04612504_34765.JPEG
alexnet,6,367,NaN,boat,boat,bw,6767_cl_dnn_bw_boat_40_n04612504_10128.JPEG
alexnet,6,368,NaN,boat,boat,bw,6768_cl_dnn_bw_boat_40_n04273569_13828.JPEG
alexnet,6,369,NaN,boat,boat,bw,6769_cl_dnn_bw_boat_40_n04273569_13524.JPEG
alexnet,6,370,NaN,boat,boat,bw,6770_cl_dnn_bw_boat_40_n04612504_10725.JPEG
alexnet,6,371,NaN,boat,boat,bw,6771_cl_dnn_bw_boat_40_n02951358_1059.JPEG
alexnet,6,372,NaN,boat,boat,bw,6772_cl_dnn_bw_boat_40_n02951358_12126.JPEG
alexnet,6,373,NaN,boat,boat,bw,6773_cl_dnn_bw_boat_40_n02951358_34926.JPEG
alexnet,6,374,NaN,boat,boat,bw,6774_cl_dnn_bw_boat_40_n03662601_10697.JPEG
alexnet,6,375,NaN,boat,boat,bw,6775_cl_dnn_bw_boat_40_n04612504_32212.JPEG
alexnet,6,376,NaN,boat,boat,bw,6776_cl_dnn_bw_boat_40_n02951358_35847.JPEG
alexnet,6,377,NaN,truck,boat,bw,6777_cl_dnn_bw_boat_40_n03662601_6693.JPEG
alexnet,6,378,NaN,boat,boat,bw,6778_cl_dnn_bw_boat_40_n03344393_6936.JPEG
alexnet,6,379,NaN,chair,boat,bw,6779_cl_dnn_bw_boat_40_n02951358_5786.JPEG
alexnet,6,380,NaN,boat,boat,bw,6780_cl_dnn_bw_boat_40_n03662601_15970.JPEG
alexnet,6,381,NaN,boat,boat,bw,6781_cl_dnn_bw_boat_40_n02951358_34807.JPEG
alexnet,6,382,NaN,boat,boat,bw,6782_cl_dnn_bw_boat_40_n04273569_33578.JPEG
alexnet,6,383,NaN,boat,boat,bw,6783_cl_dnn_bw_boat_40_n04273569_23578.JPEG
alexnet,6,384,NaN,boat,boat,bw,6784_cl_dnn_bw_boat_40_n04273569_17487.JPEG
alexnet,6,385,NaN,boat,boat,bw,6785_cl_dnn_bw_boat_40_n02951358_34418.JPEG
alexnet,6,386,NaN,boat,boat,bw,6786_cl_dnn_bw_boat_40_n04273569_6233.JPEG
alexnet,6,387,NaN,boat,boat,bw,6787_cl_dnn_bw_boat_40_n03662601_9957.JPEG
alexnet,6,388,NaN,boat,boat,bw,6788_cl_dnn_bw_boat_40_n04612504_11166.JPEG
alexnet,6,389,NaN,boat,boat,bw,6789_cl_dnn_bw_boat_40_n04612504_4734.JPEG
alexnet,6,390,NaN,boat,boat,bw,6790_cl_dnn_bw_boat_40_n03662601_5639.JPEG
alexnet,6,391,NaN,boat,boat,bw,6791_cl_dnn_bw_boat_40_n03662601_2482.JPEG
alexnet,6,392,NaN,boat,boat,bw,6792_cl_dnn_bw_boat_40_n04273569_10716.JPEG
alexnet,6,393,NaN,airplane,boat,bw,6793_cl_dnn_bw_boat_40_n02951358_6213.JPEG
alexnet,6,394,NaN,boat,boat,bw,6794_cl_dnn_bw_boat_40_n04273569_27343.JPEG
alexnet,6,395,NaN,boat,boat,bw,6795_cl_dnn_bw_boat_40_n02951358_11488.JPEG
alexnet,6,396,NaN,boat,boat,bw,6796_cl_dnn_bw_boat_40_n02951358_33269.JPEG
alexnet,6,397,NaN,boat,boat,bw,6797_cl_dnn_bw_boat_40_n03344393_2254.JPEG
alexnet,6,398,NaN,boat,boat,bw,6798_cl_dnn_bw_boat_40_n04612504_771.JPEG
alexnet,6,399,NaN,boat,boat,bw,6799_cl_dnn_bw_boat_40_n02951358_9853.JPEG
alexnet,6,400,NaN,boat,boat,bw,6800_cl_dnn_bw_boat_40_n03344393_2739.JPEG
alexnet,6,401,NaN,cat,cat,bw,6801_cl_dnn_bw_cat_40_n02123394_932.JPEG
alexnet,6,402,NaN,cat,cat,bw,6802_cl_dnn_bw_cat_40_n02124075_5043.JPEG
alexnet,6,403,NaN,cat,cat,bw,6803_cl_dnn_bw_cat_40_n02123159_8216.JPEG
alexnet,6,404,NaN,cat,cat,bw,6804_cl_dnn_bw_cat_40_n02123045_3821.JPEG
alexnet,6,405,NaN,cat,cat,bw,6805_cl_dnn_bw_cat_40_n02125311_40154.JPEG
alexnet,6,406,NaN,dog,cat,bw,6806_cl_dnn_bw_cat_40_n02125311_10930.JPEG
alexnet,6,407,NaN,cat,cat,bw,6807_cl_dnn_bw_cat_40_n02123597_9032.JPEG
alexnet,6,408,NaN,cat,cat,bw,6808_cl_dnn_bw_cat_40_n02123159_1112.JPEG
alexnet,6,409,NaN,cat,cat,bw,6809_cl_dnn_bw_cat_40_n02124075_13685.JPEG
alexnet,6,410,NaN,dog,cat,bw,6810_cl_dnn_bw_cat_40_n02125311_9307.JPEG
alexnet,6,411,NaN,cat,cat,bw,6811_cl_dnn_bw_cat_40_n02123159_1405.JPEG
alexnet,6,412,NaN,cat,cat,bw,6812_cl_dnn_bw_cat_40_n02124075_1382.JPEG
alexnet,6,413,NaN,cat,cat,bw,6813_cl_dnn_bw_cat_40_n02123597_1516.JPEG
alexnet,6,414,NaN,cat,cat,bw,6814_cl_dnn_bw_cat_40_n02124075_19083.JPEG
alexnet,6,415,NaN,dog,cat,bw,6815_cl_dnn_bw_cat_40_n02123045_9684.JPEG
alexnet,6,416,NaN,cat,cat,bw,6816_cl_dnn_bw_cat_40_n02125311_47339.JPEG
alexnet,6,417,NaN,dog,cat,bw,6817_cl_dnn_bw_cat_40_n02123394_9043.JPEG
alexnet,6,418,NaN,cat,cat,bw,6818_cl_dnn_bw_cat_40_n02123394_2471.JPEG
alexnet,6,419,NaN,cat,cat,bw,6819_cl_dnn_bw_cat_40_n02123159_572.JPEG
alexnet,6,420,NaN,cat,cat,bw,6820_cl_dnn_bw_cat_40_n02123394_374.JPEG
alexnet,6,421,NaN,cat,cat,bw,6821_cl_dnn_bw_cat_40_n02123394_1612.JPEG
alexnet,6,422,NaN,cat,cat,bw,6822_cl_dnn_bw_cat_40_n02123045_5713.JPEG
alexnet,6,423,NaN,cat,cat,bw,6823_cl_dnn_bw_cat_40_n02123597_4775.JPEG
alexnet,6,424,NaN,cat,cat,bw,6824_cl_dnn_bw_cat_40_n02124075_4157.JPEG
alexnet,6,425,NaN,cat,cat,bw,6825_cl_dnn_bw_cat_40_n02123045_10210.JPEG
alexnet,6,426,NaN,cat,cat,bw,6826_cl_dnn_bw_cat_40_n02123159_6145.JPEG
alexnet,6,427,NaN,cat,cat,bw,6827_cl_dnn_bw_cat_40_n02124075_2993.JPEG
alexnet,6,428,NaN,cat,cat,bw,6828_cl_dnn_bw_cat_40_n02123394_1831.JPEG
alexnet,6,429,NaN,cat,cat,bw,6829_cl_dnn_bw_cat_40_n02124075_6448.JPEG
alexnet,6,430,NaN,cat,cat,bw,6830_cl_dnn_bw_cat_40_n02123045_5932.JPEG
alexnet,6,431,NaN,cat,cat,bw,6831_cl_dnn_bw_cat_40_n02125311_2622.JPEG
alexnet,6,432,NaN,cat,cat,bw,6832_cl_dnn_bw_cat_40_n02123394_2180.JPEG
alexnet,6,433,NaN,cat,cat,bw,6833_cl_dnn_bw_cat_40_n02123597_9080.JPEG
alexnet,6,434,NaN,cat,cat,bw,6834_cl_dnn_bw_cat_40_n02123045_10633.JPEG
alexnet,6,435,NaN,cat,cat,bw,6835_cl_dnn_bw_cat_40_n02125311_36160.JPEG
alexnet,6,436,NaN,cat,cat,bw,6836_cl_dnn_bw_cat_40_n02123045_4733.JPEG
alexnet,6,437,NaN,dog,cat,bw,6837_cl_dnn_bw_cat_40_n02123394_6324.JPEG
alexnet,6,438,NaN,cat,cat,bw,6838_cl_dnn_bw_cat_40_n02123045_8541.JPEG
alexnet,6,439,NaN,cat,cat,bw,6839_cl_dnn_bw_cat_40_n02124075_17592.JPEG
alexnet,6,440,NaN,cat,cat,bw,6840_cl_dnn_bw_cat_40_n02125311_6972.JPEG
alexnet,6,441,NaN,bottle,bottle,bw,6841_cl_dnn_bw_bottle_40_n03983396_4754.JPEG
alexnet,6,442,NaN,bottle,bottle,bw,6842_cl_dnn_bw_bottle_40_n02823428_1572.JPEG
alexnet,6,443,NaN,bottle,bottle,bw,6843_cl_dnn_bw_bottle_40_n04560804_12411.JPEG
alexnet,6,444,NaN,bottle,bottle,bw,6844_cl_dnn_bw_bottle_40_n04591713_2043.JPEG
alexnet,6,445,NaN,bottle,bottle,bw,6845_cl_dnn_bw_bottle_40_n04591713_6263.JPEG
alexnet,6,446,NaN,bottle,bottle,bw,6846_cl_dnn_bw_bottle_40_n04557648_10309.JPEG
alexnet,6,447,NaN,bottle,bottle,bw,6847_cl_dnn_bw_bottle_40_n03937543_4690.JPEG
alexnet,6,448,NaN,bottle,bottle,bw,6848_cl_dnn_bw_bottle_40_n04560804_16276.JPEG
alexnet,6,449,NaN,bottle,bottle,bw,6849_cl_dnn_bw_bottle_40_n02823428_3782.JPEG
alexnet,6,450,NaN,keyboard,bottle,bw,6850_cl_dnn_bw_bottle_40_n04557648_12409.JPEG
alexnet,6,451,NaN,bottle,bottle,bw,6851_cl_dnn_bw_bottle_40_n04579145_3773.JPEG
alexnet,6,452,NaN,bottle,bottle,bw,6852_cl_dnn_bw_bottle_40_n04557648_9394.JPEG
alexnet,6,453,NaN,bottle,bottle,bw,6853_cl_dnn_bw_bottle_40_n04579145_7117.JPEG
alexnet,6,454,NaN,bottle,bottle,bw,6854_cl_dnn_bw_bottle_40_n04591713_7121.JPEG
alexnet,6,455,NaN,clock,bottle,bw,6855_cl_dnn_bw_bottle_40_n03983396_5672.JPEG
alexnet,6,456,NaN,bottle,bottle,bw,6856_cl_dnn_bw_bottle_40_n02823428_908.JPEG
alexnet,6,457,NaN,bottle,bottle,bw,6857_cl_dnn_bw_bottle_40_n04579145_1213.JPEG
alexnet,6,458,NaN,bottle,bottle,bw,6858_cl_dnn_bw_bottle_40_n04560804_4179.JPEG
alexnet,6,459,NaN,bottle,bottle,bw,6859_cl_dnn_bw_bottle_40_n03937543_4259.JPEG
alexnet,6,460,NaN,knife,bottle,bw,6860_cl_dnn_bw_bottle_40_n03937543_9394.JPEG
alexnet,6,461,NaN,bottle,bottle,bw,6861_cl_dnn_bw_bottle_40_n03937543_5945.JPEG
alexnet,6,462,NaN,bottle,bottle,bw,6862_cl_dnn_bw_bottle_40_n04591713_6297.JPEG
alexnet,6,463,NaN,chair,bottle,bw,6863_cl_dnn_bw_bottle_40_n04557648_1293.JPEG
alexnet,6,464,NaN,bottle,bottle,bw,6864_cl_dnn_bw_bottle_40_n03937543_2130.JPEG
alexnet,6,465,NaN,bottle,bottle,bw,6865_cl_dnn_bw_bottle_40_n03983396_278.JPEG
alexnet,6,466,NaN,keyboard,bottle,bw,6866_cl_dnn_bw_bottle_40_n03983396_9600.JPEG
alexnet,6,467,NaN,truck,bottle,bw,6867_cl_dnn_bw_bottle_40_n02823428_5791.JPEG
alexnet,6,468,NaN,bottle,bottle,bw,6868_cl_dnn_bw_bottle_40_n02823428_2774.JPEG
alexnet,6,469,NaN,bottle,bottle,bw,6869_cl_dnn_bw_bottle_40_n04591713_10440.JPEG
alexnet,6,470,NaN,dog,bottle,bw,6870_cl_dnn_bw_bottle_40_n02823428_4193.JPEG
alexnet,6,471,NaN,bottle,bottle,bw,6871_cl_dnn_bw_bottle_40_n03983396_4236.JPEG
alexnet,6,472,NaN,bottle,bottle,bw,6872_cl_dnn_bw_bottle_40_n03937543_9743.JPEG
alexnet,6,473,NaN,bottle,bottle,bw,6873_cl_dnn_bw_bottle_40_n04557648_9553.JPEG
alexnet,6,474,NaN,bottle,bottle,bw,6874_cl_dnn_bw_bottle_40_n04579145_3660.JPEG
alexnet,6,475,NaN,bottle,bottle,bw,6875_cl_dnn_bw_bottle_40_n04591713_3844.JPEG
alexnet,6,476,NaN,bottle,bottle,bw,6876_cl_dnn_bw_bottle_40_n02823428_2488.JPEG
alexnet,6,477,NaN,chair,bottle,bw,6877_cl_dnn_bw_bottle_40_n04591713_587.JPEG
alexnet,6,478,NaN,bottle,bottle,bw,6878_cl_dnn_bw_bottle_40_n02823428_12849.JPEG
alexnet,6,479,NaN,bottle,bottle,bw,6879_cl_dnn_bw_bottle_40_n04591713_4064.JPEG
alexnet,6,480,NaN,bottle,bottle,bw,6880_cl_dnn_bw_bottle_40_n03937543_5096.JPEG
alexnet,6,481,NaN,truck,truck,bw,6881_cl_dnn_bw_truck_40_n03796401_24965.JPEG
alexnet,6,482,NaN,truck,truck,bw,6882_cl_dnn_bw_truck_40_n03417042_16737.JPEG
alexnet,6,483,NaN,truck,truck,bw,6883_cl_dnn_bw_truck_40_n03796401_6923.JPEG
alexnet,6,484,NaN,truck,truck,bw,6884_cl_dnn_bw_truck_40_n03417042_6662.JPEG
alexnet,6,485,NaN,truck,truck,bw,6885_cl_dnn_bw_truck_40_n03417042_19862.JPEG
alexnet,6,486,NaN,truck,truck,bw,6886_cl_dnn_bw_truck_40_n03417042_27680.JPEG
alexnet,6,487,NaN,clock,truck,bw,6887_cl_dnn_bw_truck_40_n03796401_6402.JPEG
alexnet,6,488,NaN,truck,truck,bw,6888_cl_dnn_bw_truck_40_n03796401_7438.JPEG
alexnet,6,489,NaN,truck,truck,bw,6889_cl_dnn_bw_truck_40_n03796401_3487.JPEG
alexnet,6,490,NaN,truck,truck,bw,6890_cl_dnn_bw_truck_40_n03796401_7380.JPEG
alexnet,6,491,NaN,truck,truck,bw,6891_cl_dnn_bw_truck_40_n03417042_2138.JPEG
alexnet,6,492,NaN,boat,truck,bw,6892_cl_dnn_bw_truck_40_n04467665_3211.JPEG
alexnet,6,493,NaN,truck,truck,bw,6893_cl_dnn_bw_truck_40_n04467665_54512.JPEG
alexnet,6,494,NaN,truck,truck,bw,6894_cl_dnn_bw_truck_40_n04467665_7093.JPEG
alexnet,6,495,NaN,truck,truck,bw,6895_cl_dnn_bw_truck_40_n03796401_7261.JPEG
alexnet,6,496,NaN,truck,truck,bw,6896_cl_dnn_bw_truck_40_n04467665_67726.JPEG
alexnet,6,497,NaN,truck,truck,bw,6897_cl_dnn_bw_truck_40_n04467665_56933.JPEG
alexnet,6,498,NaN,truck,truck,bw,6898_cl_dnn_bw_truck_40_n03417042_12267.JPEG
alexnet,6,499,NaN,truck,truck,bw,6899_cl_dnn_bw_truck_40_n03796401_2226.JPEG
alexnet,6,500,NaN,truck,truck,bw,6900_cl_dnn_bw_truck_40_n04467665_1888.JPEG
alexnet,6,501,NaN,truck,truck,bw,6901_cl_dnn_bw_truck_40_n03417042_15078.JPEG
alexnet,6,502,NaN,truck,truck,bw,6902_cl_dnn_bw_truck_40_n04467665_12962.JPEG
alexnet,6,503,NaN,truck,truck,bw,6903_cl_dnn_bw_truck_40_n03417042_18127.JPEG
alexnet,6,504,NaN,truck,truck,bw,6904_cl_dnn_bw_truck_40_n03796401_9472.JPEG
alexnet,6,505,NaN,truck,truck,bw,6905_cl_dnn_bw_truck_40_n03796401_24013.JPEG
alexnet,6,506,NaN,truck,truck,bw,6906_cl_dnn_bw_truck_40_n04467665_45872.JPEG
alexnet,6,507,NaN,truck,truck,bw,6907_cl_dnn_bw_truck_40_n03417042_9967.JPEG
alexnet,6,508,NaN,truck,truck,bw,6908_cl_dnn_bw_truck_40_n04467665_26262.JPEG
alexnet,6,509,NaN,truck,truck,bw,6909_cl_dnn_bw_truck_40_n03417042_10546.JPEG
alexnet,6,510,NaN,truck,truck,bw,6910_cl_dnn_bw_truck_40_n03417042_10506.JPEG
alexnet,6,511,NaN,truck,truck,bw,6911_cl_dnn_bw_truck_40_n03417042_5208.JPEG
alexnet,6,512,NaN,truck,truck,bw,6912_cl_dnn_bw_truck_40_n04467665_59822.JPEG
alexnet,6,513,NaN,truck,truck,bw,6913_cl_dnn_bw_truck_40_n03796401_2884.JPEG
alexnet,6,514,NaN,truck,truck,bw,6914_cl_dnn_bw_truck_40_n03417042_19203.JPEG
alexnet,6,515,NaN,truck,truck,bw,6915_cl_dnn_bw_truck_40_n04467665_3942.JPEG
alexnet,6,516,NaN,truck,truck,bw,6916_cl_dnn_bw_truck_40_n04467665_63662.JPEG
alexnet,6,517,NaN,truck,truck,bw,6917_cl_dnn_bw_truck_40_n03417042_16370.JPEG
alexnet,6,518,NaN,truck,truck,bw,6918_cl_dnn_bw_truck_40_n04467665_5606.JPEG
alexnet,6,519,NaN,chair,truck,bw,6919_cl_dnn_bw_truck_40_n03796401_6705.JPEG
alexnet,6,520,NaN,truck,truck,bw,6920_cl_dnn_bw_truck_40_n03417042_18374.JPEG
alexnet,6,521,NaN,car,car,bw,6921_cl_dnn_bw_car_40_n04285008_7.JPEG
alexnet,6,522,NaN,car,car,bw,6922_cl_dnn_bw_car_40_n04285008_2402.JPEG
alexnet,6,523,NaN,car,car,bw,6923_cl_dnn_bw_car_40_n04285008_1959.JPEG
alexnet,6,524,NaN,car,car,bw,6924_cl_dnn_bw_car_40_n02814533_57508.JPEG
alexnet,6,525,NaN,car,car,bw,6925_cl_dnn_bw_car_40_n04285008_3503.JPEG
alexnet,6,526,NaN,car,car,bw,6926_cl_dnn_bw_car_40_n03100240_2905.JPEG
alexnet,6,527,NaN,car,car,bw,6927_cl_dnn_bw_car_40_n03100240_21884.JPEG
alexnet,6,528,NaN,car,car,bw,6928_cl_dnn_bw_car_40_n02814533_3624.JPEG
alexnet,6,529,NaN,car,car,bw,6929_cl_dnn_bw_car_40_n03100240_9470.JPEG
alexnet,6,530,NaN,car,car,bw,6930_cl_dnn_bw_car_40_n02814533_85692.JPEG
alexnet,6,531,NaN,car,car,bw,6931_cl_dnn_bw_car_40_n02814533_32231.JPEG
alexnet,6,532,NaN,car,car,bw,6932_cl_dnn_bw_car_40_n02814533_75173.JPEG
alexnet,6,533,NaN,car,car,bw,6933_cl_dnn_bw_car_40_n04285008_11704.JPEG
alexnet,6,534,NaN,car,car,bw,6934_cl_dnn_bw_car_40_n03100240_3395.JPEG
alexnet,6,535,NaN,car,car,bw,6935_cl_dnn_bw_car_40_n02814533_36174.JPEG
alexnet,6,536,NaN,car,car,bw,6936_cl_dnn_bw_car_40_n03100240_1092.JPEG
alexnet,6,537,NaN,bottle,car,bw,6937_cl_dnn_bw_car_40_n02814533_92229.JPEG
alexnet,6,538,NaN,car,car,bw,6938_cl_dnn_bw_car_40_n03100240_8085.JPEG
alexnet,6,539,NaN,car,car,bw,6939_cl_dnn_bw_car_40_n04285008_10884.JPEG
alexnet,6,540,NaN,car,car,bw,6940_cl_dnn_bw_car_40_n04285008_12192.JPEG
alexnet,6,541,NaN,car,car,bw,6941_cl_dnn_bw_car_40_n04285008_9383.JPEG
alexnet,6,542,NaN,car,car,bw,6942_cl_dnn_bw_car_40_n04285008_6849.JPEG
alexnet,6,543,NaN,chair,car,bw,6943_cl_dnn_bw_car_40_n04285008_7852.JPEG
alexnet,6,544,NaN,car,car,bw,6944_cl_dnn_bw_car_40_n02814533_17871.JPEG
alexnet,6,545,NaN,oven,car,bw,6945_cl_dnn_bw_car_40_n02814533_81246.JPEG
alexnet,6,546,NaN,car,car,bw,6946_cl_dnn_bw_car_40_n04285008_6757.JPEG
alexnet,6,547,NaN,car,car,bw,6947_cl_dnn_bw_car_40_n02814533_95144.JPEG
alexnet,6,548,NaN,car,car,bw,6948_cl_dnn_bw_car_40_n02814533_2636.JPEG
alexnet,6,549,NaN,car,car,bw,6949_cl_dnn_bw_car_40_n02814533_1391.JPEG
alexnet,6,550,NaN,car,car,bw,6950_cl_dnn_bw_car_40_n04285008_1952.JPEG
alexnet,6,551,NaN,car,car,bw,6951_cl_dnn_bw_car_40_n02814533_21949.JPEG
alexnet,6,552,NaN,car,car,bw,6952_cl_dnn_bw_car_40_n04285008_6239.JPEG
alexnet,6,553,NaN,car,car,bw,6953_cl_dnn_bw_car_40_n02814533_5242.JPEG
alexnet,6,554,NaN,car,car,bw,6954_cl_dnn_bw_car_40_n04285008_8761.JPEG
alexnet,6,555,NaN,car,car,bw,6955_cl_dnn_bw_car_40_n03100240_813.JPEG
alexnet,6,556,NaN,car,car,bw,6956_cl_dnn_bw_car_40_n04285008_810.JPEG
alexnet,6,557,NaN,truck,car,bw,6957_cl_dnn_bw_car_40_n03100240_6626.JPEG
alexnet,6,558,NaN,car,car,bw,6958_cl_dnn_bw_car_40_n04285008_3015.JPEG
alexnet,6,559,NaN,truck,car,bw,6959_cl_dnn_bw_car_40_n03100240_549.JPEG
alexnet,6,560,NaN,car,car,bw,6960_cl_dnn_bw_car_40_n02814533_25416.JPEG
alexnet,6,561,NaN,bird,bird,bw,6961_cl_dnn_bw_bird_40_n01795545_3697.JPEG
alexnet,6,562,NaN,bird,bird,bw,6962_cl_dnn_bw_bird_40_n02013706_4997.JPEG
alexnet,6,563,NaN,bird,bird,bw,6963_cl_dnn_bw_bird_40_n01558993_2624.JPEG
alexnet,6,564,NaN,bird,bird,bw,6964_cl_dnn_bw_bird_40_n02009912_13808.JPEG
alexnet,6,565,NaN,bird,bird,bw,6965_cl_dnn_bw_bird_40_n02013706_95.JPEG
alexnet,6,566,NaN,bird,bird,bw,6966_cl_dnn_bw_bird_40_n01616318_3957.JPEG
alexnet,6,567,NaN,bird,bird,bw,6967_cl_dnn_bw_bird_40_n01829413_2736.JPEG
alexnet,6,568,NaN,bird,bird,bw,6968_cl_dnn_bw_bird_40_n02018207_24973.JPEG
alexnet,6,569,NaN,bird,bird,bw,6969_cl_dnn_bw_bird_40_n01530575_3190.JPEG
alexnet,6,570,NaN,bird,bird,bw,6970_cl_dnn_bw_bird_40_n01843383_11851.JPEG
alexnet,6,571,NaN,bird,bird,bw,6971_cl_dnn_bw_bird_40_n01855672_4107.JPEG
alexnet,6,572,NaN,bird,bird,bw,6972_cl_dnn_bw_bird_40_n01614925_4797.JPEG
alexnet,6,573,NaN,bird,bird,bw,6973_cl_dnn_bw_bird_40_n01795545_10765.JPEG
alexnet,6,574,NaN,bird,bird,bw,6974_cl_dnn_bw_bird_40_n02025239_2311.JPEG
alexnet,6,575,NaN,dog,bird,bw,6975_cl_dnn_bw_bird_40_n02056570_9827.JPEG
alexnet,6,576,NaN,bird,bird,bw,6976_cl_dnn_bw_bird_40_n01537544_1921.JPEG
alexnet,6,577,NaN,bird,bird,bw,6977_cl_dnn_bw_bird_40_n01855672_15582.JPEG
alexnet,6,578,NaN,bird,bird,bw,6978_cl_dnn_bw_bird_40_n01860187_1217.JPEG
alexnet,6,579,NaN,dog,bird,bw,6979_cl_dnn_bw_bird_40_n01833805_7776.JPEG
alexnet,6,580,NaN,dog,bird,bw,6980_cl_dnn_bw_bird_40_n01514859_12114.JPEG
alexnet,6,581,NaN,bird,bird,bw,6981_cl_dnn_bw_bird_40_n02002556_25058.JPEG
alexnet,6,582,NaN,dog,bird,bw,6982_cl_dnn_bw_bird_40_n01860187_4180.JPEG
alexnet,6,583,NaN,bird,bird,bw,6983_cl_dnn_bw_bird_40_n01534433_13869.JPEG
alexnet,6,584,NaN,bird,bird,bw,6984_cl_dnn_bw_bird_40_n01592084_5818.JPEG
alexnet,6,585,NaN,bird,bird,bw,6985_cl_dnn_bw_bird_40_n02011460_8259.JPEG
alexnet,6,586,NaN,bird,bird,bw,6986_cl_dnn_bw_bird_40_n01558993_9154.JPEG
alexnet,6,587,NaN,bird,bird,bw,6987_cl_dnn_bw_bird_40_n01855032_3273.JPEG
alexnet,6,588,NaN,bird,bird,bw,6988_cl_dnn_bw_bird_40_n01534433_1759.JPEG
alexnet,6,589,NaN,bird,bird,bw,6989_cl_dnn_bw_bird_40_n01796340_1455.JPEG
alexnet,6,590,NaN,bird,bird,bw,6990_cl_dnn_bw_bird_40_n01833805_76.JPEG
alexnet,6,591,NaN,bird,bird,bw,6991_cl_dnn_bw_bird_40_n01534433_15209.JPEG
alexnet,6,592,NaN,bird,bird,bw,6992_cl_dnn_bw_bird_40_n01829413_3610.JPEG
alexnet,6,593,NaN,bird,bird,bw,6993_cl_dnn_bw_bird_40_n01820546_4241.JPEG
alexnet,6,594,NaN,bird,bird,bw,6994_cl_dnn_bw_bird_40_n01616318_2662.JPEG
alexnet,6,595,NaN,bird,bird,bw,6995_cl_dnn_bw_bird_40_n02033041_4943.JPEG
alexnet,6,596,NaN,bird,bird,bw,6996_cl_dnn_bw_bird_40_n01828970_5901.JPEG
alexnet,6,597,NaN,bird,bird,bw,6997_cl_dnn_bw_bird_40_n02025239_1064.JPEG
alexnet,6,598,NaN,bird,bird,bw,6998_cl_dnn_bw_bird_40_n02018795_17149.JPEG
alexnet,6,599,NaN,bird,bird,bw,6999_cl_dnn_bw_bird_40_n02002556_10467.JPEG
alexnet,6,600,NaN,bird,bird,bw,7000_cl_dnn_bw_bird_40_n01843065_10465.JPEG
alexnet,6,601,NaN,dog,dog,bw,7001_cl_dnn_bw_dog_40_n02107312_5495.JPEG
alexnet,6,602,NaN,bear,dog,bw,7002_cl_dnn_bw_dog_40_n02105056_15335.JPEG
alexnet,6,603,NaN,dog,dog,bw,7003_cl_dnn_bw_dog_40_n02099601_286.JPEG
alexnet,6,604,NaN,dog,dog,bw,7004_cl_dnn_bw_dog_40_n02097047_870.JPEG
alexnet,6,605,NaN,dog,dog,bw,7005_cl_dnn_bw_dog_40_n02108000_2110.JPEG
alexnet,6,606,NaN,dog,dog,bw,7006_cl_dnn_bw_dog_40_n02105641_12610.JPEG
alexnet,6,607,NaN,dog,dog,bw,7007_cl_dnn_bw_dog_40_n02086079_14735.JPEG
alexnet,6,608,NaN,dog,dog,bw,7008_cl_dnn_bw_dog_40_n02091831_6273.JPEG
alexnet,6,609,NaN,dog,dog,bw,7009_cl_dnn_bw_dog_40_n02106030_10170.JPEG
alexnet,6,610,NaN,dog,dog,bw,7010_cl_dnn_bw_dog_40_n02113624_7430.JPEG
alexnet,6,611,NaN,dog,dog,bw,7011_cl_dnn_bw_dog_40_n02093647_3087.JPEG
alexnet,6,612,NaN,dog,dog,bw,7012_cl_dnn_bw_dog_40_n02107683_2945.JPEG
alexnet,6,613,NaN,dog,dog,bw,7013_cl_dnn_bw_dog_40_n02107574_5694.JPEG
alexnet,6,614,NaN,dog,dog,bw,7014_cl_dnn_bw_dog_40_n02087046_19212.JPEG
alexnet,6,615,NaN,dog,dog,bw,7015_cl_dnn_bw_dog_40_n02098286_1170.JPEG
alexnet,6,616,NaN,dog,dog,bw,7016_cl_dnn_bw_dog_40_n02105251_4344.JPEG
alexnet,6,617,NaN,dog,dog,bw,7017_cl_dnn_bw_dog_40_n02109047_12462.JPEG
alexnet,6,618,NaN,dog,dog,bw,7018_cl_dnn_bw_dog_40_n02088094_900.JPEG
alexnet,6,619,NaN,dog,dog,bw,7019_cl_dnn_bw_dog_40_n02093428_7803.JPEG
alexnet,6,620,NaN,dog,dog,bw,7020_cl_dnn_bw_dog_40_n02090379_3042.JPEG
alexnet,6,621,NaN,dog,dog,bw,7021_cl_dnn_bw_dog_40_n02100735_6463.JPEG
alexnet,6,622,NaN,dog,dog,bw,7022_cl_dnn_bw_dog_40_n02107142_12739.JPEG
alexnet,6,623,NaN,dog,dog,bw,7023_cl_dnn_bw_dog_40_n02088632_8926.JPEG
alexnet,6,624,NaN,dog,dog,bw,7024_cl_dnn_bw_dog_40_n02097474_9580.JPEG
alexnet,6,625,NaN,dog,dog,bw,7025_cl_dnn_bw_dog_40_n02091134_5541.JPEG
alexnet,6,626,NaN,dog,dog,bw,7026_cl_dnn_bw_dog_40_n02112706_5291.JPEG
alexnet,6,627,NaN,dog,dog,bw,7027_cl_dnn_bw_dog_40_n02097658_2362.JPEG
alexnet,6,628,NaN,dog,dog,bw,7028_cl_dnn_bw_dog_40_n02110185_6067.JPEG
alexnet,6,629,NaN,dog,dog,bw,7029_cl_dnn_bw_dog_40_n02097474_12542.JPEG
alexnet,6,630,NaN,dog,dog,bw,7030_cl_dnn_bw_dog_40_n02109047_62096.JPEG
alexnet,6,631,NaN,dog,dog,bw,7031_cl_dnn_bw_dog_40_n02100877_585.JPEG
alexnet,6,632,NaN,dog,dog,bw,7032_cl_dnn_bw_dog_40_n02112350_5345.JPEG
alexnet,6,633,NaN,dog,dog,bw,7033_cl_dnn_bw_dog_40_n02089973_4810.JPEG
alexnet,6,634,NaN,dog,dog,bw,7034_cl_dnn_bw_dog_40_n02107683_832.JPEG
alexnet,6,635,NaN,dog,dog,bw,7035_cl_dnn_bw_dog_40_n02093256_8295.JPEG
alexnet,6,636,NaN,dog,dog,bw,7036_cl_dnn_bw_dog_40_n02102040_4349.JPEG
alexnet,6,637,NaN,dog,dog,bw,7037_cl_dnn_bw_dog_40_n02105162_2736.JPEG
alexnet,6,638,NaN,dog,dog,bw,7038_cl_dnn_bw_dog_40_n02091831_2692.JPEG
alexnet,6,639,NaN,dog,dog,bw,7039_cl_dnn_bw_dog_40_n02107683_3140.JPEG
alexnet,6,640,NaN,dog,dog,bw,7040_cl_dnn_bw_dog_40_n02086910_6431.JPEG
alexnet,6,641,NaN,knife,knife,cr,7041_cl_dnn_cr_knife_40_n03041632_24181.JPEG
alexnet,6,642,NaN,knife,knife,cr,7042_cl_dnn_cr_knife_40_n03041632_15431.JPEG
alexnet,6,643,NaN,knife,knife,cr,7043_cl_dnn_cr_knife_40_n03041632_17067.JPEG
alexnet,6,644,NaN,chair,knife,cr,7044_cl_dnn_cr_knife_40_n03041632_56217.JPEG
alexnet,6,645,NaN,knife,knife,cr,7045_cl_dnn_cr_knife_40_n03041632_16104.JPEG
alexnet,6,646,NaN,knife,knife,cr,7046_cl_dnn_cr_knife_40_n03041632_4044.JPEG
alexnet,6,647,NaN,knife,knife,cr,7047_cl_dnn_cr_knife_40_n03041632_46091.JPEG
alexnet,6,648,NaN,chair,knife,cr,7048_cl_dnn_cr_knife_40_n03041632_3079.JPEG
alexnet,6,649,NaN,bicycle,knife,cr,7049_cl_dnn_cr_knife_40_n03041632_80829.JPEG
alexnet,6,650,NaN,knife,knife,cr,7050_cl_dnn_cr_knife_40_n03041632_12651.JPEG
alexnet,6,651,NaN,knife,knife,cr,7051_cl_dnn_cr_knife_40_n03041632_79317.JPEG
alexnet,6,652,NaN,knife,knife,cr,7052_cl_dnn_cr_knife_40_n03041632_30565.JPEG
alexnet,6,653,NaN,knife,knife,cr,7053_cl_dnn_cr_knife_40_n03041632_7116.JPEG
alexnet,6,654,NaN,knife,knife,cr,7054_cl_dnn_cr_knife_40_n03041632_3005.JPEG
alexnet,6,655,NaN,dog,knife,cr,7055_cl_dnn_cr_knife_40_n03041632_23546.JPEG
alexnet,6,656,NaN,knife,knife,cr,7056_cl_dnn_cr_knife_40_n03041632_45338.JPEG
alexnet,6,657,NaN,truck,knife,cr,7057_cl_dnn_cr_knife_40_n03041632_8051.JPEG
alexnet,6,658,NaN,knife,knife,cr,7058_cl_dnn_cr_knife_40_n03041632_54627.JPEG
alexnet,6,659,NaN,oven,knife,cr,7059_cl_dnn_cr_knife_40_n03041632_29427.JPEG
alexnet,6,660,NaN,knife,knife,cr,7060_cl_dnn_cr_knife_40_n03041632_15299.JPEG
alexnet,6,661,NaN,keyboard,knife,cr,7061_cl_dnn_cr_knife_40_n03041632_28658.JPEG
alexnet,6,662,NaN,chair,knife,cr,7062_cl_dnn_cr_knife_40_n03041632_24541.JPEG
alexnet,6,663,NaN,keyboard,knife,cr,7063_cl_dnn_cr_knife_40_n03041632_25331.JPEG
alexnet,6,664,NaN,knife,knife,cr,7064_cl_dnn_cr_knife_40_n03041632_11969.JPEG
alexnet,6,665,NaN,bottle,knife,cr,7065_cl_dnn_cr_knife_40_n03041632_2468.JPEG
alexnet,6,666,NaN,bottle,knife,cr,7066_cl_dnn_cr_knife_40_n03041632_15099.JPEG
alexnet,6,667,NaN,knife,knife,cr,7067_cl_dnn_cr_knife_40_n03041632_9671.JPEG
alexnet,6,668,NaN,knife,knife,cr,7068_cl_dnn_cr_knife_40_n03041632_21560.JPEG
alexnet,6,669,NaN,knife,knife,cr,7069_cl_dnn_cr_knife_40_n03041632_29827.JPEG
alexnet,6,670,NaN,bird,knife,cr,7070_cl_dnn_cr_knife_40_n03041632_92637.JPEG
alexnet,6,671,NaN,knife,knife,cr,7071_cl_dnn_cr_knife_40_n03041632_42156.JPEG
alexnet,6,672,NaN,knife,knife,cr,7072_cl_dnn_cr_knife_40_n03041632_29680.JPEG
alexnet,6,673,NaN,knife,knife,cr,7073_cl_dnn_cr_knife_40_n03041632_14817.JPEG
alexnet,6,674,NaN,knife,knife,cr,7074_cl_dnn_cr_knife_40_n03041632_39836.JPEG
alexnet,6,675,NaN,knife,knife,cr,7075_cl_dnn_cr_knife_40_n03041632_9157.JPEG
alexnet,6,676,NaN,knife,knife,cr,7076_cl_dnn_cr_knife_40_n03041632_24950.JPEG
alexnet,6,677,NaN,knife,knife,cr,7077_cl_dnn_cr_knife_40_n03041632_30079.JPEG
alexnet,6,678,NaN,knife,knife,cr,7078_cl_dnn_cr_knife_40_n03041632_4708.JPEG
alexnet,6,679,NaN,knife,knife,cr,7079_cl_dnn_cr_knife_40_n03041632_36814.JPEG
alexnet,6,680,NaN,knife,knife,cr,7080_cl_dnn_cr_knife_40_n03041632_14132.JPEG
alexnet,6,681,NaN,keyboard,keyboard,cr,7081_cl_dnn_cr_keyboard_40_n03085013_21355.JPEG
alexnet,6,682,NaN,keyboard,keyboard,cr,7082_cl_dnn_cr_keyboard_40_n03085013_24399.JPEG
alexnet,6,683,NaN,keyboard,keyboard,cr,7083_cl_dnn_cr_keyboard_40_n03085013_24275.JPEG
alexnet,6,684,NaN,keyboard,keyboard,cr,7084_cl_dnn_cr_keyboard_40_n03085013_21161.JPEG
alexnet,6,685,NaN,keyboard,keyboard,cr,7085_cl_dnn_cr_keyboard_40_n03085013_21447.JPEG
alexnet,6,686,NaN,keyboard,keyboard,cr,7086_cl_dnn_cr_keyboard_40_n04505470_4666.JPEG
alexnet,6,687,NaN,keyboard,keyboard,cr,7087_cl_dnn_cr_keyboard_40_n04505470_1430.JPEG
alexnet,6,688,NaN,keyboard,keyboard,cr,7088_cl_dnn_cr_keyboard_40_n03085013_8579.JPEG
alexnet,6,689,NaN,keyboard,keyboard,cr,7089_cl_dnn_cr_keyboard_40_n03085013_20379.JPEG
alexnet,6,690,NaN,keyboard,keyboard,cr,7090_cl_dnn_cr_keyboard_40_n03085013_1695.JPEG
alexnet,6,691,NaN,keyboard,keyboard,cr,7091_cl_dnn_cr_keyboard_40_n04505470_6051.JPEG
alexnet,6,692,NaN,keyboard,keyboard,cr,7092_cl_dnn_cr_keyboard_40_n04505470_6876.JPEG
alexnet,6,693,NaN,chair,keyboard,cr,7093_cl_dnn_cr_keyboard_40_n03085013_22386.JPEG
alexnet,6,694,NaN,keyboard,keyboard,cr,7094_cl_dnn_cr_keyboard_40_n03085013_19707.JPEG
alexnet,6,695,NaN,keyboard,keyboard,cr,7095_cl_dnn_cr_keyboard_40_n04505470_986.JPEG
alexnet,6,696,NaN,keyboard,keyboard,cr,7096_cl_dnn_cr_keyboard_40_n04505470_5058.JPEG
alexnet,6,697,NaN,keyboard,keyboard,cr,7097_cl_dnn_cr_keyboard_40_n04505470_489.JPEG
alexnet,6,698,NaN,keyboard,keyboard,cr,7098_cl_dnn_cr_keyboard_40_n03085013_22496.JPEG
alexnet,6,699,NaN,keyboard,keyboard,cr,7099_cl_dnn_cr_keyboard_40_n03085013_31250.JPEG
alexnet,6,700,NaN,keyboard,keyboard,cr,7100_cl_dnn_cr_keyboard_40_n03085013_20891.JPEG
alexnet,6,701,NaN,keyboard,keyboard,cr,7101_cl_dnn_cr_keyboard_40_n04505470_10581.JPEG
alexnet,6,702,NaN,keyboard,keyboard,cr,7102_cl_dnn_cr_keyboard_40_n03085013_10661.JPEG
alexnet,6,703,NaN,bottle,keyboard,cr,7103_cl_dnn_cr_keyboard_40_n03085013_18903.JPEG
alexnet,6,704,NaN,keyboard,keyboard,cr,7104_cl_dnn_cr_keyboard_40_n04505470_4627.JPEG
alexnet,6,705,NaN,keyboard,keyboard,cr,7105_cl_dnn_cr_keyboard_40_n04505470_2570.JPEG
alexnet,6,706,NaN,keyboard,keyboard,cr,7106_cl_dnn_cr_keyboard_40_n04505470_5042.JPEG
alexnet,6,707,NaN,keyboard,keyboard,cr,7107_cl_dnn_cr_keyboard_40_n03085013_22700.JPEG
alexnet,6,708,NaN,keyboard,keyboard,cr,7108_cl_dnn_cr_keyboard_40_n04505470_430.JPEG
alexnet,6,709,NaN,dog,keyboard,cr,7109_cl_dnn_cr_keyboard_40_n03085013_1200.JPEG
alexnet,6,710,NaN,keyboard,keyboard,cr,7110_cl_dnn_cr_keyboard_40_n04505470_5121.JPEG
alexnet,6,711,NaN,keyboard,keyboard,cr,7111_cl_dnn_cr_keyboard_40_n04505470_816.JPEG
alexnet,6,712,NaN,keyboard,keyboard,cr,7112_cl_dnn_cr_keyboard_40_n03085013_23789.JPEG
alexnet,6,713,NaN,keyboard,keyboard,cr,7113_cl_dnn_cr_keyboard_40_n03085013_29576.JPEG
alexnet,6,714,NaN,keyboard,keyboard,cr,7114_cl_dnn_cr_keyboard_40_n04505470_3234.JPEG
alexnet,6,715,NaN,keyboard,keyboard,cr,7115_cl_dnn_cr_keyboard_40_n04505470_5059.JPEG
alexnet,6,716,NaN,keyboard,keyboard,cr,7116_cl_dnn_cr_keyboard_40_n03085013_19020.JPEG
alexnet,6,717,NaN,keyboard,keyboard,cr,7117_cl_dnn_cr_keyboard_40_n04505470_361.JPEG
alexnet,6,718,NaN,keyboard,keyboard,cr,7118_cl_dnn_cr_keyboard_40_n03085013_2272.JPEG
alexnet,6,719,NaN,keyboard,keyboard,cr,7119_cl_dnn_cr_keyboard_40_n03085013_25443.JPEG
alexnet,6,720,NaN,keyboard,keyboard,cr,7120_cl_dnn_cr_keyboard_40_n04505470_1417.JPEG
alexnet,6,721,NaN,bird,elephant,cr,7121_cl_dnn_cr_elephant_40_n02504013_3086.JPEG
alexnet,6,722,NaN,elephant,elephant,cr,7122_cl_dnn_cr_elephant_40_n02504458_1680.JPEG
alexnet,6,723,NaN,elephant,elephant,cr,7123_cl_dnn_cr_elephant_40_n02504013_3049.JPEG
alexnet,6,724,NaN,elephant,elephant,cr,7124_cl_dnn_cr_elephant_40_n02504458_5823.JPEG
alexnet,6,725,NaN,elephant,elephant,cr,7125_cl_dnn_cr_elephant_40_n02504013_1900.JPEG
alexnet,6,726,NaN,elephant,elephant,cr,7126_cl_dnn_cr_elephant_40_n02504458_4643.JPEG
alexnet,6,727,NaN,elephant,elephant,cr,7127_cl_dnn_cr_elephant_40_n02504458_1410.JPEG
alexnet,6,728,NaN,elephant,elephant,cr,7128_cl_dnn_cr_elephant_40_n02504013_7303.JPEG
alexnet,6,729,NaN,elephant,elephant,cr,7129_cl_dnn_cr_elephant_40_n02504458_6762.JPEG
alexnet,6,730,NaN,elephant,elephant,cr,7130_cl_dnn_cr_elephant_40_n02504458_7907.JPEG
alexnet,6,731,NaN,elephant,elephant,cr,7131_cl_dnn_cr_elephant_40_n02504458_4107.JPEG
alexnet,6,732,NaN,elephant,elephant,cr,7132_cl_dnn_cr_elephant_40_n02504458_5303.JPEG
alexnet,6,733,NaN,elephant,elephant,cr,7133_cl_dnn_cr_elephant_40_n02504458_1218.JPEG
alexnet,6,734,NaN,elephant,elephant,cr,7134_cl_dnn_cr_elephant_40_n02504013_21228.JPEG
alexnet,6,735,NaN,elephant,elephant,cr,7135_cl_dnn_cr_elephant_40_n02504458_7070.JPEG
alexnet,6,736,NaN,elephant,elephant,cr,7136_cl_dnn_cr_elephant_40_n02504013_19236.JPEG
alexnet,6,737,NaN,elephant,elephant,cr,7137_cl_dnn_cr_elephant_40_n02504458_2946.JPEG
alexnet,6,738,NaN,elephant,elephant,cr,7138_cl_dnn_cr_elephant_40_n02504013_5848.JPEG
alexnet,6,739,NaN,elephant,elephant,cr,7139_cl_dnn_cr_elephant_40_n02504458_12217.JPEG
alexnet,6,740,NaN,elephant,elephant,cr,7140_cl_dnn_cr_elephant_40_n02504013_5186.JPEG
alexnet,6,741,NaN,elephant,elephant,cr,7141_cl_dnn_cr_elephant_40_n02504458_5652.JPEG
alexnet,6,742,NaN,elephant,elephant,cr,7142_cl_dnn_cr_elephant_40_n02504458_6612.JPEG
alexnet,6,743,NaN,elephant,elephant,cr,7143_cl_dnn_cr_elephant_40_n02504013_3311.JPEG
alexnet,6,744,NaN,elephant,elephant,cr,7144_cl_dnn_cr_elephant_40_n02504013_18005.JPEG
alexnet,6,745,NaN,elephant,elephant,cr,7145_cl_dnn_cr_elephant_40_n02504013_3864.JPEG
alexnet,6,746,NaN,elephant,elephant,cr,7146_cl_dnn_cr_elephant_40_n02504013_19419.JPEG
alexnet,6,747,NaN,elephant,elephant,cr,7147_cl_dnn_cr_elephant_40_n02504458_6618.JPEG
alexnet,6,748,NaN,elephant,elephant,cr,7148_cl_dnn_cr_elephant_40_n02504458_1347.JPEG
alexnet,6,749,NaN,elephant,elephant,cr,7149_cl_dnn_cr_elephant_40_n02504013_5027.JPEG
alexnet,6,750,NaN,elephant,elephant,cr,7150_cl_dnn_cr_elephant_40_n02504458_1506.JPEG
alexnet,6,751,NaN,elephant,elephant,cr,7151_cl_dnn_cr_elephant_40_n02504458_6424.JPEG
alexnet,6,752,NaN,elephant,elephant,cr,7152_cl_dnn_cr_elephant_40_n02504458_5408.JPEG
alexnet,6,753,NaN,elephant,elephant,cr,7153_cl_dnn_cr_elephant_40_n02504013_6.JPEG
alexnet,6,754,NaN,elephant,elephant,cr,7154_cl_dnn_cr_elephant_40_n02504013_10156.JPEG
alexnet,6,755,NaN,elephant,elephant,cr,7155_cl_dnn_cr_elephant_40_n02504013_2986.JPEG
alexnet,6,756,NaN,elephant,elephant,cr,7156_cl_dnn_cr_elephant_40_n02504013_6880.JPEG
alexnet,6,757,NaN,elephant,elephant,cr,7157_cl_dnn_cr_elephant_40_n02504458_4454.JPEG
alexnet,6,758,NaN,elephant,elephant,cr,7158_cl_dnn_cr_elephant_40_n02504458_696.JPEG
alexnet,6,759,NaN,elephant,elephant,cr,7159_cl_dnn_cr_elephant_40_n02504458_9876.JPEG
alexnet,6,760,NaN,elephant,elephant,cr,7160_cl_dnn_cr_elephant_40_n02504013_18217.JPEG
alexnet,6,761,NaN,bicycle,bicycle,cr,7161_cl_dnn_cr_bicycle_40_n03792782_17666.JPEG
alexnet,6,762,NaN,bicycle,bicycle,cr,7162_cl_dnn_cr_bicycle_40_n03792782_17088.JPEG
alexnet,6,763,NaN,bicycle,bicycle,cr,7163_cl_dnn_cr_bicycle_40_n02835271_6539.JPEG
alexnet,6,764,NaN,bicycle,bicycle,cr,7164_cl_dnn_cr_bicycle_40_n03792782_5665.JPEG
alexnet,6,765,NaN,bicycle,bicycle,cr,7165_cl_dnn_cr_bicycle_40_n03792782_6287.JPEG
alexnet,6,766,NaN,bicycle,bicycle,cr,7166_cl_dnn_cr_bicycle_40_n02835271_16673.JPEG
alexnet,6,767,NaN,bicycle,bicycle,cr,7167_cl_dnn_cr_bicycle_40_n02835271_7248.JPEG
alexnet,6,768,NaN,bicycle,bicycle,cr,7168_cl_dnn_cr_bicycle_40_n02835271_19400.JPEG
alexnet,6,769,NaN,bicycle,bicycle,cr,7169_cl_dnn_cr_bicycle_40_n03792782_5758.JPEG
alexnet,6,770,NaN,bicycle,bicycle,cr,7170_cl_dnn_cr_bicycle_40_n03792782_30186.JPEG
alexnet,6,771,NaN,bicycle,bicycle,cr,7171_cl_dnn_cr_bicycle_40_n02835271_6923.JPEG
alexnet,6,772,NaN,bicycle,bicycle,cr,7172_cl_dnn_cr_bicycle_40_n03792782_10728.JPEG
alexnet,6,773,NaN,bicycle,bicycle,cr,7173_cl_dnn_cr_bicycle_40_n02835271_8632.JPEG
alexnet,6,774,NaN,bicycle,bicycle,cr,7174_cl_dnn_cr_bicycle_40_n02835271_11988.JPEG
alexnet,6,775,NaN,bicycle,bicycle,cr,7175_cl_dnn_cr_bicycle_40_n03792782_15581.JPEG
alexnet,6,776,NaN,bicycle,bicycle,cr,7176_cl_dnn_cr_bicycle_40_n03792782_16408.JPEG
alexnet,6,777,NaN,bicycle,bicycle,cr,7177_cl_dnn_cr_bicycle_40_n02835271_14324.JPEG
alexnet,6,778,NaN,bicycle,bicycle,cr,7178_cl_dnn_cr_bicycle_40_n02835271_4311.JPEG
alexnet,6,779,NaN,bicycle,bicycle,cr,7179_cl_dnn_cr_bicycle_40_n03792782_11114.JPEG
alexnet,6,780,NaN,bicycle,bicycle,cr,7180_cl_dnn_cr_bicycle_40_n03792782_4927.JPEG
alexnet,6,781,NaN,bicycle,bicycle,cr,7181_cl_dnn_cr_bicycle_40_n03792782_8176.JPEG
alexnet,6,782,NaN,bicycle,bicycle,cr,7182_cl_dnn_cr_bicycle_40_n03792782_7105.JPEG
alexnet,6,783,NaN,bicycle,bicycle,cr,7183_cl_dnn_cr_bicycle_40_n03792782_15989.JPEG
alexnet,6,784,NaN,dog,bicycle,cr,7184_cl_dnn_cr_bicycle_40_n02835271_557.JPEG
alexnet,6,785,NaN,bicycle,bicycle,cr,7185_cl_dnn_cr_bicycle_40_n03792782_52665.JPEG
alexnet,6,786,NaN,bicycle,bicycle,cr,7186_cl_dnn_cr_bicycle_40_n03792782_796.JPEG
alexnet,6,787,NaN,chair,bicycle,cr,7187_cl_dnn_cr_bicycle_40_n02835271_5348.JPEG
alexnet,6,788,NaN,bicycle,bicycle,cr,7188_cl_dnn_cr_bicycle_40_n02835271_7450.JPEG
alexnet,6,789,NaN,bicycle,bicycle,cr,7189_cl_dnn_cr_bicycle_40_n03792782_435.JPEG
alexnet,6,790,NaN,bicycle,bicycle,cr,7190_cl_dnn_cr_bicycle_40_n03792782_2364.JPEG
alexnet,6,791,NaN,bicycle,bicycle,cr,7191_cl_dnn_cr_bicycle_40_n02835271_14680.JPEG
alexnet,6,792,NaN,bicycle,bicycle,cr,7192_cl_dnn_cr_bicycle_40_n02835271_13862.JPEG
alexnet,6,793,NaN,airplane,bicycle,cr,7193_cl_dnn_cr_bicycle_40_n03792782_6716.JPEG
alexnet,6,794,NaN,bicycle,bicycle,cr,7194_cl_dnn_cr_bicycle_40_n03792782_50847.JPEG
alexnet,6,795,NaN,bicycle,bicycle,cr,7195_cl_dnn_cr_bicycle_40_n03792782_43609.JPEG
alexnet,6,796,NaN,bicycle,bicycle,cr,7196_cl_dnn_cr_bicycle_40_n02835271_29741.JPEG
alexnet,6,797,NaN,bicycle,bicycle,cr,7197_cl_dnn_cr_bicycle_40_n03792782_16169.JPEG
alexnet,6,798,NaN,bicycle,bicycle,cr,7198_cl_dnn_cr_bicycle_40_n03792782_6841.JPEG
alexnet,6,799,NaN,bicycle,bicycle,cr,7199_cl_dnn_cr_bicycle_40_n03792782_3334.JPEG
alexnet,6,800,NaN,bicycle,bicycle,cr,7200_cl_dnn_cr_bicycle_40_n02835271_1119.JPEG
alexnet,6,801,NaN,airplane,airplane,cr,7201_cl_dnn_cr_airplane_40_n02690373_8163.JPEG
alexnet,6,802,NaN,airplane,airplane,cr,7202_cl_dnn_cr_airplane_40_n02690373_3920.JPEG
alexnet,6,803,NaN,airplane,airplane,cr,7203_cl_dnn_cr_airplane_40_n02690373_2716.JPEG
alexnet,6,804,NaN,airplane,airplane,cr,7204_cl_dnn_cr_airplane_40_n02690373_4375.JPEG
alexnet,6,805,NaN,airplane,airplane,cr,7205_cl_dnn_cr_airplane_40_n02690373_5217.JPEG
alexnet,6,806,NaN,airplane,airplane,cr,7206_cl_dnn_cr_airplane_40_n02690373_1773.JPEG
alexnet,6,807,NaN,airplane,airplane,cr,7207_cl_dnn_cr_airplane_40_n02690373_3588.JPEG
alexnet,6,808,NaN,airplane,airplane,cr,7208_cl_dnn_cr_airplane_40_n02690373_5016.JPEG
alexnet,6,809,NaN,airplane,airplane,cr,7209_cl_dnn_cr_airplane_40_n02690373_9324.JPEG
alexnet,6,810,NaN,airplane,airplane,cr,7210_cl_dnn_cr_airplane_40_n02690373_1441.JPEG
alexnet,6,811,NaN,airplane,airplane,cr,7211_cl_dnn_cr_airplane_40_n02690373_18603.JPEG
alexnet,6,812,NaN,airplane,airplane,cr,7212_cl_dnn_cr_airplane_40_n02690373_2092.JPEG
alexnet,6,813,NaN,airplane,airplane,cr,7213_cl_dnn_cr_airplane_40_n02690373_3000.JPEG
alexnet,6,814,NaN,airplane,airplane,cr,7214_cl_dnn_cr_airplane_40_n02690373_17722.JPEG
alexnet,6,815,NaN,airplane,airplane,cr,7215_cl_dnn_cr_airplane_40_n02690373_1996.JPEG
alexnet,6,816,NaN,airplane,airplane,cr,7216_cl_dnn_cr_airplane_40_n02690373_4860.JPEG
alexnet,6,817,NaN,airplane,airplane,cr,7217_cl_dnn_cr_airplane_40_n02690373_5328.JPEG
alexnet,6,818,NaN,airplane,airplane,cr,7218_cl_dnn_cr_airplane_40_n02690373_17731.JPEG
alexnet,6,819,NaN,airplane,airplane,cr,7219_cl_dnn_cr_airplane_40_n02690373_10931.JPEG
alexnet,6,820,NaN,airplane,airplane,cr,7220_cl_dnn_cr_airplane_40_n02690373_5724.JPEG
alexnet,6,821,NaN,airplane,airplane,cr,7221_cl_dnn_cr_airplane_40_n02690373_2851.JPEG
alexnet,6,822,NaN,airplane,airplane,cr,7222_cl_dnn_cr_airplane_40_n02690373_8461.JPEG
alexnet,6,823,NaN,airplane,airplane,cr,7223_cl_dnn_cr_airplane_40_n02690373_6406.JPEG
alexnet,6,824,NaN,airplane,airplane,cr,7224_cl_dnn_cr_airplane_40_n02690373_4282.JPEG
alexnet,6,825,NaN,airplane,airplane,cr,7225_cl_dnn_cr_airplane_40_n02690373_693.JPEG
alexnet,6,826,NaN,airplane,airplane,cr,7226_cl_dnn_cr_airplane_40_n02690373_1975.JPEG
alexnet,6,827,NaN,airplane,airplane,cr,7227_cl_dnn_cr_airplane_40_n02690373_10510.JPEG
alexnet,6,828,NaN,airplane,airplane,cr,7228_cl_dnn_cr_airplane_40_n02690373_5184.JPEG
alexnet,6,829,NaN,airplane,airplane,cr,7229_cl_dnn_cr_airplane_40_n02690373_464.JPEG
alexnet,6,830,NaN,airplane,airplane,cr,7230_cl_dnn_cr_airplane_40_n02690373_3753.JPEG
alexnet,6,831,NaN,airplane,airplane,cr,7231_cl_dnn_cr_airplane_40_n02690373_10051.JPEG
alexnet,6,832,NaN,airplane,airplane,cr,7232_cl_dnn_cr_airplane_40_n02690373_1005.JPEG
alexnet,6,833,NaN,airplane,airplane,cr,7233_cl_dnn_cr_airplane_40_n02690373_10817.JPEG
alexnet,6,834,NaN,airplane,airplane,cr,7234_cl_dnn_cr_airplane_40_n02690373_3408.JPEG
alexnet,6,835,NaN,airplane,airplane,cr,7235_cl_dnn_cr_airplane_40_n02690373_2952.JPEG
alexnet,6,836,NaN,airplane,airplane,cr,7236_cl_dnn_cr_airplane_40_n02690373_1360.JPEG
alexnet,6,837,NaN,airplane,airplane,cr,7237_cl_dnn_cr_airplane_40_n02690373_2389.JPEG
alexnet,6,838,NaN,airplane,airplane,cr,7238_cl_dnn_cr_airplane_40_n02690373_6096.JPEG
alexnet,6,839,NaN,airplane,airplane,cr,7239_cl_dnn_cr_airplane_40_n02690373_10131.JPEG
alexnet,6,840,NaN,airplane,airplane,cr,7240_cl_dnn_cr_airplane_40_n02690373_1291.JPEG
alexnet,6,841,NaN,clock,clock,cr,7241_cl_dnn_cr_clock_40_n03196217_427.JPEG
alexnet,6,842,NaN,clock,clock,cr,7242_cl_dnn_cr_clock_40_n03196217_13062.JPEG
alexnet,6,843,NaN,clock,clock,cr,7243_cl_dnn_cr_clock_40_n04548280_3198.JPEG
alexnet,6,844,NaN,clock,clock,cr,7244_cl_dnn_cr_clock_40_n04548280_7951.JPEG
alexnet,6,845,NaN,clock,clock,cr,7245_cl_dnn_cr_clock_40_n03196217_7888.JPEG
alexnet,6,846,NaN,clock,clock,cr,7246_cl_dnn_cr_clock_40_n02708093_3484.JPEG
alexnet,6,847,NaN,clock,clock,cr,7247_cl_dnn_cr_clock_40_n04548280_7969.JPEG
alexnet,6,848,NaN,clock,clock,cr,7248_cl_dnn_cr_clock_40_n04548280_2390.JPEG
alexnet,6,849,NaN,clock,clock,cr,7249_cl_dnn_cr_clock_40_n03196217_778.JPEG
alexnet,6,850,NaN,clock,clock,cr,7250_cl_dnn_cr_clock_40_n03196217_11714.JPEG
alexnet,6,851,NaN,clock,clock,cr,7251_cl_dnn_cr_clock_40_n04548280_6652.JPEG
alexnet,6,852,NaN,clock,clock,cr,7252_cl_dnn_cr_clock_40_n02708093_7169.JPEG
alexnet,6,853,NaN,clock,clock,cr,7253_cl_dnn_cr_clock_40_n04548280_5382.JPEG
alexnet,6,854,NaN,clock,clock,cr,7254_cl_dnn_cr_clock_40_n03196217_5089.JPEG
alexnet,6,855,NaN,clock,clock,cr,7255_cl_dnn_cr_clock_40_n04548280_6430.JPEG
alexnet,6,856,NaN,clock,clock,cr,7256_cl_dnn_cr_clock_40_n03196217_3140.JPEG
alexnet,6,857,NaN,clock,clock,cr,7257_cl_dnn_cr_clock_40_n02708093_1345.JPEG
alexnet,6,858,NaN,clock,clock,cr,7258_cl_dnn_cr_clock_40_n02708093_1100.JPEG
alexnet,6,859,NaN,clock,clock,cr,7259_cl_dnn_cr_clock_40_n04548280_4113.JPEG
alexnet,6,860,NaN,dog,clock,cr,7260_cl_dnn_cr_clock_40_n04548280_1411.JPEG
alexnet,6,861,NaN,clock,clock,cr,7261_cl_dnn_cr_clock_40_n04548280_4349.JPEG
alexnet,6,862,NaN,clock,clock,cr,7262_cl_dnn_cr_clock_40_n02708093_1673.JPEG
alexnet,6,863,NaN,clock,clock,cr,7263_cl_dnn_cr_clock_40_n04548280_4426.JPEG
alexnet,6,864,NaN,clock,clock,cr,7264_cl_dnn_cr_clock_40_n03196217_11445.JPEG
alexnet,6,865,NaN,clock,clock,cr,7265_cl_dnn_cr_clock_40_n03196217_8580.JPEG
alexnet,6,866,NaN,clock,clock,cr,7266_cl_dnn_cr_clock_40_n04548280_765.JPEG
alexnet,6,867,NaN,chair,clock,cr,7267_cl_dnn_cr_clock_40_n04548280_4670.JPEG
alexnet,6,868,NaN,clock,clock,cr,7268_cl_dnn_cr_clock_40_n03196217_6293.JPEG
alexnet,6,869,NaN,clock,clock,cr,7269_cl_dnn_cr_clock_40_n02708093_3352.JPEG
alexnet,6,870,NaN,clock,clock,cr,7270_cl_dnn_cr_clock_40_n03196217_10677.JPEG
alexnet,6,871,NaN,clock,clock,cr,7271_cl_dnn_cr_clock_40_n02708093_483.JPEG
alexnet,6,872,NaN,clock,clock,cr,7272_cl_dnn_cr_clock_40_n04548280_7050.JPEG
alexnet,6,873,NaN,clock,clock,cr,7273_cl_dnn_cr_clock_40_n03196217_482.JPEG
alexnet,6,874,NaN,clock,clock,cr,7274_cl_dnn_cr_clock_40_n03196217_6033.JPEG
alexnet,6,875,NaN,clock,clock,cr,7275_cl_dnn_cr_clock_40_n04548280_6984.JPEG
alexnet,6,876,NaN,bottle,clock,cr,7276_cl_dnn_cr_clock_40_n04548280_2769.JPEG
alexnet,6,877,NaN,clock,clock,cr,7277_cl_dnn_cr_clock_40_n03196217_7141.JPEG
alexnet,6,878,NaN,clock,clock,cr,7278_cl_dnn_cr_clock_40_n02708093_6966.JPEG
alexnet,6,879,NaN,clock,clock,cr,7279_cl_dnn_cr_clock_40_n04548280_9867.JPEG
alexnet,6,880,NaN,clock,clock,cr,7280_cl_dnn_cr_clock_40_n04548280_7794.JPEG
alexnet,6,881,NaN,oven,oven,cr,7281_cl_dnn_cr_oven_40_n04111531_17507.JPEG
alexnet,6,882,NaN,oven,oven,cr,7282_cl_dnn_cr_oven_40_n04111531_17072.JPEG
alexnet,6,883,NaN,oven,oven,cr,7283_cl_dnn_cr_oven_40_n04111531_5212.JPEG
alexnet,6,884,NaN,oven,oven,cr,7284_cl_dnn_cr_oven_40_n04111531_19126.JPEG
alexnet,6,885,NaN,oven,oven,cr,7285_cl_dnn_cr_oven_40_n04111531_7072.JPEG
alexnet,6,886,NaN,oven,oven,cr,7286_cl_dnn_cr_oven_40_n04111531_4671.JPEG
alexnet,6,887,NaN,oven,oven,cr,7287_cl_dnn_cr_oven_40_n04111531_12147.JPEG
alexnet,6,888,NaN,oven,oven,cr,7288_cl_dnn_cr_oven_40_n04111531_8805.JPEG
alexnet,6,889,NaN,oven,oven,cr,7289_cl_dnn_cr_oven_40_n04111531_2575.JPEG
alexnet,6,890,NaN,oven,oven,cr,7290_cl_dnn_cr_oven_40_n04111531_22041.JPEG
alexnet,6,891,NaN,oven,oven,cr,7291_cl_dnn_cr_oven_40_n04111531_5246.JPEG
alexnet,6,892,NaN,oven,oven,cr,7292_cl_dnn_cr_oven_40_n04111531_4113.JPEG
alexnet,6,893,NaN,oven,oven,cr,7293_cl_dnn_cr_oven_40_n04111531_7764.JPEG
alexnet,6,894,NaN,oven,oven,cr,7294_cl_dnn_cr_oven_40_n04111531_19000.JPEG
alexnet,6,895,NaN,oven,oven,cr,7295_cl_dnn_cr_oven_40_n04111531_2643.JPEG
alexnet,6,896,NaN,oven,oven,cr,7296_cl_dnn_cr_oven_40_n04111531_4234.JPEG
alexnet,6,897,NaN,oven,oven,cr,7297_cl_dnn_cr_oven_40_n04111531_21855.JPEG
alexnet,6,898,NaN,oven,oven,cr,7298_cl_dnn_cr_oven_40_n04111531_21208.JPEG
alexnet,6,899,NaN,oven,oven,cr,7299_cl_dnn_cr_oven_40_n04111531_5737.JPEG
alexnet,6,900,NaN,oven,oven,cr,7300_cl_dnn_cr_oven_40_n04111531_8723.JPEG
alexnet,6,901,NaN,oven,oven,cr,7301_cl_dnn_cr_oven_40_n04111531_2074.JPEG
alexnet,6,902,NaN,oven,oven,cr,7302_cl_dnn_cr_oven_40_n04111531_6536.JPEG
alexnet,6,903,NaN,oven,oven,cr,7303_cl_dnn_cr_oven_40_n04111531_7189.JPEG
alexnet,6,904,NaN,oven,oven,cr,7304_cl_dnn_cr_oven_40_n04111531_4418.JPEG
alexnet,6,905,NaN,oven,oven,cr,7305_cl_dnn_cr_oven_40_n04111531_10064.JPEG
alexnet,6,906,NaN,oven,oven,cr,7306_cl_dnn_cr_oven_40_n04111531_14178.JPEG
alexnet,6,907,NaN,oven,oven,cr,7307_cl_dnn_cr_oven_40_n04111531_4322.JPEG
alexnet,6,908,NaN,oven,oven,cr,7308_cl_dnn_cr_oven_40_n04111531_30110.JPEG
alexnet,6,909,NaN,oven,oven,cr,7309_cl_dnn_cr_oven_40_n04111531_15569.JPEG
alexnet,6,910,NaN,oven,oven,cr,7310_cl_dnn_cr_oven_40_n04111531_1725.JPEG
alexnet,6,911,NaN,oven,oven,cr,7311_cl_dnn_cr_oven_40_n04111531_249.JPEG
alexnet,6,912,NaN,oven,oven,cr,7312_cl_dnn_cr_oven_40_n04111531_9314.JPEG
alexnet,6,913,NaN,oven,oven,cr,7313_cl_dnn_cr_oven_40_n04111531_2186.JPEG
alexnet,6,914,NaN,oven,oven,cr,7314_cl_dnn_cr_oven_40_n04111531_7449.JPEG
alexnet,6,915,NaN,oven,oven,cr,7315_cl_dnn_cr_oven_40_n04111531_15582.JPEG
alexnet,6,916,NaN,oven,oven,cr,7316_cl_dnn_cr_oven_40_n04111531_22923.JPEG
alexnet,6,917,NaN,oven,oven,cr,7317_cl_dnn_cr_oven_40_n04111531_22386.JPEG
alexnet,6,918,NaN,oven,oven,cr,7318_cl_dnn_cr_oven_40_n04111531_9334.JPEG
alexnet,6,919,NaN,oven,oven,cr,7319_cl_dnn_cr_oven_40_n04111531_687.JPEG
alexnet,6,920,NaN,oven,oven,cr,7320_cl_dnn_cr_oven_40_n04111531_2473.JPEG
alexnet,6,921,NaN,chair,chair,cr,7321_cl_dnn_cr_chair_40_n02791124_5370.JPEG
alexnet,6,922,NaN,chair,chair,cr,7322_cl_dnn_cr_chair_40_n03376595_6634.JPEG
alexnet,6,923,NaN,chair,chair,cr,7323_cl_dnn_cr_chair_40_n03376595_13.JPEG
alexnet,6,924,NaN,chair,chair,cr,7324_cl_dnn_cr_chair_40_n04099969_246.JPEG
alexnet,6,925,NaN,chair,chair,cr,7325_cl_dnn_cr_chair_40_n02791124_1935.JPEG
alexnet,6,926,NaN,chair,chair,cr,7326_cl_dnn_cr_chair_40_n03376595_3574.JPEG
alexnet,6,927,NaN,chair,chair,cr,7327_cl_dnn_cr_chair_40_n04099969_6001.JPEG
alexnet,6,928,NaN,chair,chair,cr,7328_cl_dnn_cr_chair_40_n02791124_1810.JPEG
alexnet,6,929,NaN,chair,chair,cr,7329_cl_dnn_cr_chair_40_n02791124_177.JPEG
alexnet,6,930,NaN,chair,chair,cr,7330_cl_dnn_cr_chair_40_n02791124_2918.JPEG
alexnet,6,931,NaN,chair,chair,cr,7331_cl_dnn_cr_chair_40_n04429376_14186.JPEG
alexnet,6,932,NaN,chair,chair,cr,7332_cl_dnn_cr_chair_40_n03376595_2734.JPEG
alexnet,6,933,NaN,chair,chair,cr,7333_cl_dnn_cr_chair_40_n03376595_10873.JPEG
alexnet,6,934,NaN,chair,chair,cr,7334_cl_dnn_cr_chair_40_n03376595_8012.JPEG
alexnet,6,935,NaN,chair,chair,cr,7335_cl_dnn_cr_chair_40_n02791124_1023.JPEG
alexnet,6,936,NaN,chair,chair,cr,7336_cl_dnn_cr_chair_40_n02791124_28.JPEG
alexnet,6,937,NaN,chair,chair,cr,7337_cl_dnn_cr_chair_40_n03376595_2916.JPEG
alexnet,6,938,NaN,chair,chair,cr,7338_cl_dnn_cr_chair_40_n03376595_14970.JPEG
alexnet,6,939,NaN,chair,chair,cr,7339_cl_dnn_cr_chair_40_n03376595_1831.JPEG
alexnet,6,940,NaN,chair,chair,cr,7340_cl_dnn_cr_chair_40_n02791124_10260.JPEG
alexnet,6,941,NaN,chair,chair,cr,7341_cl_dnn_cr_chair_40_n03376595_2924.JPEG
alexnet,6,942,NaN,chair,chair,cr,7342_cl_dnn_cr_chair_40_n03376595_1719.JPEG
alexnet,6,943,NaN,chair,chair,cr,7343_cl_dnn_cr_chair_40_n04099969_6940.JPEG
alexnet,6,944,NaN,chair,chair,cr,7344_cl_dnn_cr_chair_40_n02791124_733.JPEG
alexnet,6,945,NaN,keyboard,chair,cr,7345_cl_dnn_cr_chair_40_n04099969_52474.JPEG
alexnet,6,946,NaN,dog,chair,cr,7346_cl_dnn_cr_chair_40_n02791124_16058.JPEG
alexnet,6,947,NaN,chair,chair,cr,7347_cl_dnn_cr_chair_40_n03376595_14029.JPEG
alexnet,6,948,NaN,chair,chair,cr,7348_cl_dnn_cr_chair_40_n03376595_14095.JPEG
alexnet,6,949,NaN,chair,chair,cr,7349_cl_dnn_cr_chair_40_n03376595_10926.JPEG
alexnet,6,950,NaN,chair,chair,cr,7350_cl_dnn_cr_chair_40_n03376595_2099.JPEG
alexnet,6,951,NaN,chair,chair,cr,7351_cl_dnn_cr_chair_40_n03376595_89.JPEG
alexnet,6,952,NaN,chair,chair,cr,7352_cl_dnn_cr_chair_40_n04099969_1825.JPEG
alexnet,6,953,NaN,chair,chair,cr,7353_cl_dnn_cr_chair_40_n02791124_2408.JPEG
alexnet,6,954,NaN,chair,chair,cr,7354_cl_dnn_cr_chair_40_n04099969_1795.JPEG
alexnet,6,955,NaN,chair,chair,cr,7355_cl_dnn_cr_chair_40_n03376595_6137.JPEG
alexnet,6,956,NaN,chair,chair,cr,7356_cl_dnn_cr_chair_40_n04429376_17336.JPEG
alexnet,6,957,NaN,chair,chair,cr,7357_cl_dnn_cr_chair_40_n02791124_923.JPEG
alexnet,6,958,NaN,chair,chair,cr,7358_cl_dnn_cr_chair_40_n02791124_4135.JPEG
alexnet,6,959,NaN,chair,chair,cr,7359_cl_dnn_cr_chair_40_n04099969_47308.JPEG
alexnet,6,960,NaN,chair,chair,cr,7360_cl_dnn_cr_chair_40_n03376595_11887.JPEG
alexnet,6,961,NaN,bear,bear,cr,7361_cl_dnn_cr_bear_40_n02134084_342.JPEG
alexnet,6,962,NaN,bear,bear,cr,7362_cl_dnn_cr_bear_40_n02134084_20837.JPEG
alexnet,6,963,NaN,bear,bear,cr,7363_cl_dnn_cr_bear_40_n02133161_4493.JPEG
alexnet,6,964,NaN,bear,bear,cr,7364_cl_dnn_cr_bear_40_n02132136_1584.JPEG
alexnet,6,965,NaN,bear,bear,cr,7365_cl_dnn_cr_bear_40_n02133161_8448.JPEG
alexnet,6,966,NaN,bear,bear,cr,7366_cl_dnn_cr_bear_40_n02134418_4271.JPEG
alexnet,6,967,NaN,bottle,bear,cr,7367_cl_dnn_cr_bear_40_n02134418_239.JPEG
alexnet,6,968,NaN,bear,bear,cr,7368_cl_dnn_cr_bear_40_n02132136_9515.JPEG
alexnet,6,969,NaN,bear,bear,cr,7369_cl_dnn_cr_bear_40_n02133161_15372.JPEG
alexnet,6,970,NaN,bear,bear,cr,7370_cl_dnn_cr_bear_40_n02134084_1528.JPEG
alexnet,6,971,NaN,bear,bear,cr,7371_cl_dnn_cr_bear_40_n02132136_17346.JPEG
alexnet,6,972,NaN,bear,bear,cr,7372_cl_dnn_cr_bear_40_n02133161_15177.JPEG
alexnet,6,973,NaN,bear,bear,cr,7373_cl_dnn_cr_bear_40_n02133161_10318.JPEG
alexnet,6,974,NaN,bear,bear,cr,7374_cl_dnn_cr_bear_40_n02134084_1857.JPEG
alexnet,6,975,NaN,bear,bear,cr,7375_cl_dnn_cr_bear_40_n02132136_1499.JPEG
alexnet,6,976,NaN,bear,bear,cr,7376_cl_dnn_cr_bear_40_n02134084_5275.JPEG
alexnet,6,977,NaN,bear,bear,cr,7377_cl_dnn_cr_bear_40_n02132136_19290.JPEG
alexnet,6,978,NaN,bear,bear,cr,7378_cl_dnn_cr_bear_40_n02132136_16081.JPEG
alexnet,6,979,NaN,bear,bear,cr,7379_cl_dnn_cr_bear_40_n02133161_5382.JPEG
alexnet,6,980,NaN,bear,bear,cr,7380_cl_dnn_cr_bear_40_n02134418_6204.JPEG
alexnet,6,981,NaN,bear,bear,cr,7381_cl_dnn_cr_bear_40_n02134084_17875.JPEG
alexnet,6,982,NaN,bear,bear,cr,7382_cl_dnn_cr_bear_40_n02133161_6679.JPEG
alexnet,6,983,NaN,bear,bear,cr,7383_cl_dnn_cr_bear_40_n02134418_1028.JPEG
alexnet,6,984,NaN,bear,bear,cr,7384_cl_dnn_cr_bear_40_n02132136_5132.JPEG
alexnet,6,985,NaN,bear,bear,cr,7385_cl_dnn_cr_bear_40_n02132136_2290.JPEG
alexnet,6,986,NaN,bear,bear,cr,7386_cl_dnn_cr_bear_40_n02132136_18829.JPEG
alexnet,6,987,NaN,bear,bear,cr,7387_cl_dnn_cr_bear_40_n02134418_5269.JPEG
alexnet,6,988,NaN,bear,bear,cr,7388_cl_dnn_cr_bear_40_n02133161_4347.JPEG
alexnet,6,989,NaN,bear,bear,cr,7389_cl_dnn_cr_bear_40_n02133161_1656.JPEG
alexnet,6,990,NaN,bear,bear,cr,7390_cl_dnn_cr_bear_40_n02133161_11299.JPEG
alexnet,6,991,NaN,bear,bear,cr,7391_cl_dnn_cr_bear_40_n02134084_6972.JPEG
alexnet,6,992,NaN,bear,bear,cr,7392_cl_dnn_cr_bear_40_n02134084_8198.JPEG
alexnet,6,993,NaN,bear,bear,cr,7393_cl_dnn_cr_bear_40_n02134084_2556.JPEG
alexnet,6,994,NaN,bear,bear,cr,7394_cl_dnn_cr_bear_40_n02134084_6869.JPEG
alexnet,6,995,NaN,bear,bear,cr,7395_cl_dnn_cr_bear_40_n02133161_2386.JPEG
alexnet,6,996,NaN,bear,bear,cr,7396_cl_dnn_cr_bear_40_n02134418_3383.JPEG
alexnet,6,997,NaN,bear,bear,cr,7397_cl_dnn_cr_bear_40_n02134084_13175.JPEG
alexnet,6,998,NaN,bear,bear,cr,7398_cl_dnn_cr_bear_40_n02133161_5529.JPEG
alexnet,6,999,NaN,bear,bear,cr,7399_cl_dnn_cr_bear_40_n02134084_2959.JPEG
alexnet,6,1000,NaN,bear,bear,cr,7400_cl_dnn_cr_bear_40_n02132136_32624.JPEG
alexnet,6,1001,NaN,boat,boat,cr,7401_cl_dnn_cr_boat_40_n04612504_15875.JPEG
alexnet,6,1002,NaN,boat,boat,cr,7402_cl_dnn_cr_boat_40_n04612504_20067.JPEG
alexnet,6,1003,NaN,boat,boat,cr,7403_cl_dnn_cr_boat_40_n03662601_10565.JPEG
alexnet,6,1004,NaN,boat,boat,cr,7404_cl_dnn_cr_boat_40_n03662601_23731.JPEG
alexnet,6,1005,NaN,boat,boat,cr,7405_cl_dnn_cr_boat_40_n03344393_5625.JPEG
alexnet,6,1006,NaN,boat,boat,cr,7406_cl_dnn_cr_boat_40_n02951358_13551.JPEG
alexnet,6,1007,NaN,boat,boat,cr,7407_cl_dnn_cr_boat_40_n03662601_4541.JPEG
alexnet,6,1008,NaN,boat,boat,cr,7408_cl_dnn_cr_boat_40_n03662601_33238.JPEG
alexnet,6,1009,NaN,boat,boat,cr,7409_cl_dnn_cr_boat_40_n04273569_10899.JPEG
alexnet,6,1010,NaN,boat,boat,cr,7410_cl_dnn_cr_boat_40_n04612504_10878.JPEG
alexnet,6,1011,NaN,boat,boat,cr,7411_cl_dnn_cr_boat_40_n02951358_3452.JPEG
alexnet,6,1012,NaN,boat,boat,cr,7412_cl_dnn_cr_boat_40_n03344393_7564.JPEG
alexnet,6,1013,NaN,boat,boat,cr,7413_cl_dnn_cr_boat_40_n04612504_20764.JPEG
alexnet,6,1014,NaN,boat,boat,cr,7414_cl_dnn_cr_boat_40_n03344393_6653.JPEG
alexnet,6,1015,NaN,boat,boat,cr,7415_cl_dnn_cr_boat_40_n04273569_29426.JPEG
alexnet,6,1016,NaN,boat,boat,cr,7416_cl_dnn_cr_boat_40_n04273569_1493.JPEG
alexnet,6,1017,NaN,boat,boat,cr,7417_cl_dnn_cr_boat_40_n03344393_4239.JPEG
alexnet,6,1018,NaN,boat,boat,cr,7418_cl_dnn_cr_boat_40_n03344393_3865.JPEG
alexnet,6,1019,NaN,boat,boat,cr,7419_cl_dnn_cr_boat_40_n03662601_1319.JPEG
alexnet,6,1020,NaN,boat,boat,cr,7420_cl_dnn_cr_boat_40_n04273569_928.JPEG
alexnet,6,1021,NaN,boat,boat,cr,7421_cl_dnn_cr_boat_40_n03344393_3881.JPEG
alexnet,6,1022,NaN,boat,boat,cr,7422_cl_dnn_cr_boat_40_n04273569_18037.JPEG
alexnet,6,1023,NaN,boat,boat,cr,7423_cl_dnn_cr_boat_40_n04612504_27749.JPEG
alexnet,6,1024,NaN,boat,boat,cr,7424_cl_dnn_cr_boat_40_n03344393_8502.JPEG
alexnet,6,1025,NaN,boat,boat,cr,7425_cl_dnn_cr_boat_40_n03662601_18135.JPEG
alexnet,6,1026,NaN,boat,boat,cr,7426_cl_dnn_cr_boat_40_n03662601_8344.JPEG
alexnet,6,1027,NaN,boat,boat,cr,7427_cl_dnn_cr_boat_40_n03662601_6399.JPEG
alexnet,6,1028,NaN,boat,boat,cr,7428_cl_dnn_cr_boat_40_n04612504_21983.JPEG
alexnet,6,1029,NaN,boat,boat,cr,7429_cl_dnn_cr_boat_40_n03344393_9569.JPEG
alexnet,6,1030,NaN,boat,boat,cr,7430_cl_dnn_cr_boat_40_n03662601_110.JPEG
alexnet,6,1031,NaN,boat,boat,cr,7431_cl_dnn_cr_boat_40_n04612504_8077.JPEG
alexnet,6,1032,NaN,boat,boat,cr,7432_cl_dnn_cr_boat_40_n02951358_30737.JPEG
alexnet,6,1033,NaN,boat,boat,cr,7433_cl_dnn_cr_boat_40_n04273569_23412.JPEG
alexnet,6,1034,NaN,boat,boat,cr,7434_cl_dnn_cr_boat_40_n03344393_2731.JPEG
alexnet,6,1035,NaN,boat,boat,cr,7435_cl_dnn_cr_boat_40_n02951358_4025.JPEG
alexnet,6,1036,NaN,boat,boat,cr,7436_cl_dnn_cr_boat_40_n03344393_931.JPEG
alexnet,6,1037,NaN,boat,boat,cr,7437_cl_dnn_cr_boat_40_n03344393_3995.JPEG
alexnet,6,1038,NaN,boat,boat,cr,7438_cl_dnn_cr_boat_40_n04612504_30603.JPEG
alexnet,6,1039,NaN,boat,boat,cr,7439_cl_dnn_cr_boat_40_n04273569_12425.JPEG
alexnet,6,1040,NaN,boat,boat,cr,7440_cl_dnn_cr_boat_40_n03344393_8510.JPEG
alexnet,6,1041,NaN,cat,cat,cr,7441_cl_dnn_cr_cat_40_n02123159_4588.JPEG
alexnet,6,1042,NaN,dog,cat,cr,7442_cl_dnn_cr_cat_40_n02123045_10645.JPEG
alexnet,6,1043,NaN,cat,cat,cr,7443_cl_dnn_cr_cat_40_n02125311_22657.JPEG
alexnet,6,1044,NaN,cat,cat,cr,7444_cl_dnn_cr_cat_40_n02123597_760.JPEG
alexnet,6,1045,NaN,cat,cat,cr,7445_cl_dnn_cr_cat_40_n02123045_2852.JPEG
alexnet,6,1046,NaN,cat,cat,cr,7446_cl_dnn_cr_cat_40_n02123159_7891.JPEG
alexnet,6,1047,NaN,cat,cat,cr,7447_cl_dnn_cr_cat_40_n02124075_7411.JPEG
alexnet,6,1048,NaN,cat,cat,cr,7448_cl_dnn_cr_cat_40_n02125311_8992.JPEG
alexnet,6,1049,NaN,cat,cat,cr,7449_cl_dnn_cr_cat_40_n02125311_18552.JPEG
alexnet,6,1050,NaN,cat,cat,cr,7450_cl_dnn_cr_cat_40_n02123597_22264.JPEG
alexnet,6,1051,NaN,cat,cat,cr,7451_cl_dnn_cr_cat_40_n02123159_1389.JPEG
alexnet,6,1052,NaN,cat,cat,cr,7452_cl_dnn_cr_cat_40_n02123045_12966.JPEG
alexnet,6,1053,NaN,cat,cat,cr,7453_cl_dnn_cr_cat_40_n02123394_4755.JPEG
alexnet,6,1054,NaN,cat,cat,cr,7454_cl_dnn_cr_cat_40_n02123394_7935.JPEG
alexnet,6,1055,NaN,cat,cat,cr,7455_cl_dnn_cr_cat_40_n02123159_1750.JPEG
alexnet,6,1056,NaN,cat,cat,cr,7456_cl_dnn_cr_cat_40_n02125311_58392.JPEG
alexnet,6,1057,NaN,dog,cat,cr,7457_cl_dnn_cr_cat_40_n02125311_17510.JPEG
alexnet,6,1058,NaN,cat,cat,cr,7458_cl_dnn_cr_cat_40_n02124075_19506.JPEG
alexnet,6,1059,NaN,cat,cat,cr,7459_cl_dnn_cr_cat_40_n02123597_7016.JPEG
alexnet,6,1060,NaN,cat,cat,cr,7460_cl_dnn_cr_cat_40_n02123045_20319.JPEG
alexnet,6,1061,NaN,cat,cat,cr,7461_cl_dnn_cr_cat_40_n02123394_4596.JPEG
alexnet,6,1062,NaN,cat,cat,cr,7462_cl_dnn_cr_cat_40_n02123045_7048.JPEG
alexnet,6,1063,NaN,cat,cat,cr,7463_cl_dnn_cr_cat_40_n02125311_13521.JPEG
alexnet,6,1064,NaN,cat,cat,cr,7464_cl_dnn_cr_cat_40_n02123394_663.JPEG
alexnet,6,1065,NaN,cat,cat,cr,7465_cl_dnn_cr_cat_40_n02123045_2714.JPEG
alexnet,6,1066,NaN,cat,cat,cr,7466_cl_dnn_cr_cat_40_n02123045_10890.JPEG
alexnet,6,1067,NaN,cat,cat,cr,7467_cl_dnn_cr_cat_40_n02123159_7183.JPEG
alexnet,6,1068,NaN,cat,cat,cr,7468_cl_dnn_cr_cat_40_n02123159_13211.JPEG
alexnet,6,1069,NaN,cat,cat,cr,7469_cl_dnn_cr_cat_40_n02125311_58323.JPEG
alexnet,6,1070,NaN,dog,cat,cr,7470_cl_dnn_cr_cat_40_n02124075_2148.JPEG
alexnet,6,1071,NaN,cat,cat,cr,7471_cl_dnn_cr_cat_40_n02125311_5706.JPEG
alexnet,6,1072,NaN,cat,cat,cr,7472_cl_dnn_cr_cat_40_n02124075_14929.JPEG
alexnet,6,1073,NaN,cat,cat,cr,7473_cl_dnn_cr_cat_40_n02124075_15897.JPEG
alexnet,6,1074,NaN,cat,cat,cr,7474_cl_dnn_cr_cat_40_n02124075_9318.JPEG
alexnet,6,1075,NaN,cat,cat,cr,7475_cl_dnn_cr_cat_40_n02125311_7837.JPEG
alexnet,6,1076,NaN,cat,cat,cr,7476_cl_dnn_cr_cat_40_n02123159_327.JPEG
alexnet,6,1077,NaN,cat,cat,cr,7477_cl_dnn_cr_cat_40_n02123597_4442.JPEG
alexnet,6,1078,NaN,bird,cat,cr,7478_cl_dnn_cr_cat_40_n02123045_3672.JPEG
alexnet,6,1079,NaN,cat,cat,cr,7479_cl_dnn_cr_cat_40_n02123159_6381.JPEG
alexnet,6,1080,NaN,cat,cat,cr,7480_cl_dnn_cr_cat_40_n02125311_15625.JPEG
alexnet,6,1081,NaN,bottle,bottle,cr,7481_cl_dnn_cr_bottle_40_n03983396_5481.JPEG
alexnet,6,1082,NaN,bottle,bottle,cr,7482_cl_dnn_cr_bottle_40_n03983396_618.JPEG
alexnet,6,1083,NaN,bottle,bottle,cr,7483_cl_dnn_cr_bottle_40_n04557648_5518.JPEG
alexnet,6,1084,NaN,bottle,bottle,cr,7484_cl_dnn_cr_bottle_40_n04560804_14090.JPEG
alexnet,6,1085,NaN,bottle,bottle,cr,7485_cl_dnn_cr_bottle_40_n03937543_4069.JPEG
alexnet,6,1086,NaN,bottle,bottle,cr,7486_cl_dnn_cr_bottle_40_n03937543_2140.JPEG
alexnet,6,1087,NaN,bottle,bottle,cr,7487_cl_dnn_cr_bottle_40_n03983396_8051.JPEG
alexnet,6,1088,NaN,bottle,bottle,cr,7488_cl_dnn_cr_bottle_40_n04557648_9335.JPEG
alexnet,6,1089,NaN,bottle,bottle,cr,7489_cl_dnn_cr_bottle_40_n04557648_143.JPEG
alexnet,6,1090,NaN,bottle,bottle,cr,7490_cl_dnn_cr_bottle_40_n02823428_4556.JPEG
alexnet,6,1091,NaN,bottle,bottle,cr,7491_cl_dnn_cr_bottle_40_n04579145_4597.JPEG
alexnet,6,1092,NaN,bottle,bottle,cr,7492_cl_dnn_cr_bottle_40_n04591713_5201.JPEG
alexnet,6,1093,NaN,bottle,bottle,cr,7493_cl_dnn_cr_bottle_40_n04560804_531.JPEG
alexnet,6,1094,NaN,bottle,bottle,cr,7494_cl_dnn_cr_bottle_40_n03983396_9114.JPEG
alexnet,6,1095,NaN,bottle,bottle,cr,7495_cl_dnn_cr_bottle_40_n04557648_6134.JPEG
alexnet,6,1096,NaN,bottle,bottle,cr,7496_cl_dnn_cr_bottle_40_n03937543_3726.JPEG
alexnet,6,1097,NaN,bottle,bottle,cr,7497_cl_dnn_cr_bottle_40_n03983396_4407.JPEG
alexnet,6,1098,NaN,bottle,bottle,cr,7498_cl_dnn_cr_bottle_40_n04557648_8744.JPEG
alexnet,6,1099,NaN,bottle,bottle,cr,7499_cl_dnn_cr_bottle_40_n02823428_10737.JPEG
alexnet,6,1100,NaN,bottle,bottle,cr,7500_cl_dnn_cr_bottle_40_n04591713_7450.JPEG
alexnet,6,1101,NaN,bottle,bottle,cr,7501_cl_dnn_cr_bottle_40_n03937543_2469.JPEG
alexnet,6,1102,NaN,bottle,bottle,cr,7502_cl_dnn_cr_bottle_40_n02823428_7992.JPEG
alexnet,6,1103,NaN,bird,bottle,cr,7503_cl_dnn_cr_bottle_40_n04591713_16610.JPEG
alexnet,6,1104,NaN,bottle,bottle,cr,7504_cl_dnn_cr_bottle_40_n04557648_5475.JPEG
alexnet,6,1105,NaN,bottle,bottle,cr,7505_cl_dnn_cr_bottle_40_n04557648_1691.JPEG
alexnet,6,1106,NaN,bottle,bottle,cr,7506_cl_dnn_cr_bottle_40_n04560804_6329.JPEG
alexnet,6,1107,NaN,bottle,bottle,cr,7507_cl_dnn_cr_bottle_40_n04557648_2411.JPEG
alexnet,6,1108,NaN,bottle,bottle,cr,7508_cl_dnn_cr_bottle_40_n03983396_5332.JPEG
alexnet,6,1109,NaN,bottle,bottle,cr,7509_cl_dnn_cr_bottle_40_n04557648_3439.JPEG
alexnet,6,1110,NaN,bottle,bottle,cr,7510_cl_dnn_cr_bottle_40_n03937543_5334.JPEG
alexnet,6,1111,NaN,bottle,bottle,cr,7511_cl_dnn_cr_bottle_40_n04560804_938.JPEG
alexnet,6,1112,NaN,bottle,bottle,cr,7512_cl_dnn_cr_bottle_40_n04557648_4504.JPEG
alexnet,6,1113,NaN,bottle,bottle,cr,7513_cl_dnn_cr_bottle_40_n04557648_2543.JPEG
alexnet,6,1114,NaN,bottle,bottle,cr,7514_cl_dnn_cr_bottle_40_n04560804_13583.JPEG
alexnet,6,1115,NaN,bottle,bottle,cr,7515_cl_dnn_cr_bottle_40_n04579145_1995.JPEG
alexnet,6,1116,NaN,bottle,bottle,cr,7516_cl_dnn_cr_bottle_40_n03983396_14652.JPEG
alexnet,6,1117,NaN,bottle,bottle,cr,7517_cl_dnn_cr_bottle_40_n04557648_26155.JPEG
alexnet,6,1118,NaN,bottle,bottle,cr,7518_cl_dnn_cr_bottle_40_n04560804_15919.JPEG
alexnet,6,1119,NaN,bottle,bottle,cr,7519_cl_dnn_cr_bottle_40_n04591713_2123.JPEG
alexnet,6,1120,NaN,bottle,bottle,cr,7520_cl_dnn_cr_bottle_40_n04560804_31095.JPEG
alexnet,6,1121,NaN,truck,truck,cr,7521_cl_dnn_cr_truck_40_n04467665_69440.JPEG
alexnet,6,1122,NaN,truck,truck,cr,7522_cl_dnn_cr_truck_40_n04467665_36215.JPEG
alexnet,6,1123,NaN,truck,truck,cr,7523_cl_dnn_cr_truck_40_n03796401_10878.JPEG
alexnet,6,1124,NaN,truck,truck,cr,7524_cl_dnn_cr_truck_40_n04467665_1188.JPEG
alexnet,6,1125,NaN,truck,truck,cr,7525_cl_dnn_cr_truck_40_n03417042_4614.JPEG
alexnet,6,1126,NaN,truck,truck,cr,7526_cl_dnn_cr_truck_40_n03417042_4114.JPEG
alexnet,6,1127,NaN,truck,truck,cr,7527_cl_dnn_cr_truck_40_n04467665_2797.JPEG
alexnet,6,1128,NaN,truck,truck,cr,7528_cl_dnn_cr_truck_40_n03417042_5110.JPEG
alexnet,6,1129,NaN,truck,truck,cr,7529_cl_dnn_cr_truck_40_n04467665_66141.JPEG
alexnet,6,1130,NaN,car,truck,cr,7530_cl_dnn_cr_truck_40_n03417042_12560.JPEG
alexnet,6,1131,NaN,truck,truck,cr,7531_cl_dnn_cr_truck_40_n03417042_6130.JPEG
alexnet,6,1132,NaN,truck,truck,cr,7532_cl_dnn_cr_truck_40_n04467665_40853.JPEG
alexnet,6,1133,NaN,truck,truck,cr,7533_cl_dnn_cr_truck_40_n03417042_10694.JPEG
alexnet,6,1134,NaN,truck,truck,cr,7534_cl_dnn_cr_truck_40_n03796401_27963.JPEG
alexnet,6,1135,NaN,truck,truck,cr,7535_cl_dnn_cr_truck_40_n03417042_21277.JPEG
alexnet,6,1136,NaN,truck,truck,cr,7536_cl_dnn_cr_truck_40_n04467665_63487.JPEG
alexnet,6,1137,NaN,truck,truck,cr,7537_cl_dnn_cr_truck_40_n04467665_50903.JPEG
alexnet,6,1138,NaN,truck,truck,cr,7538_cl_dnn_cr_truck_40_n03796401_12844.JPEG
alexnet,6,1139,NaN,truck,truck,cr,7539_cl_dnn_cr_truck_40_n03796401_5338.JPEG
alexnet,6,1140,NaN,truck,truck,cr,7540_cl_dnn_cr_truck_40_n03417042_12095.JPEG
alexnet,6,1141,NaN,truck,truck,cr,7541_cl_dnn_cr_truck_40_n04467665_59974.JPEG
alexnet,6,1142,NaN,truck,truck,cr,7542_cl_dnn_cr_truck_40_n03796401_6631.JPEG
alexnet,6,1143,NaN,truck,truck,cr,7543_cl_dnn_cr_truck_40_n04467665_840.JPEG
alexnet,6,1144,NaN,truck,truck,cr,7544_cl_dnn_cr_truck_40_n03796401_6772.JPEG
alexnet,6,1145,NaN,truck,truck,cr,7545_cl_dnn_cr_truck_40_n03796401_3623.JPEG
alexnet,6,1146,NaN,truck,truck,cr,7546_cl_dnn_cr_truck_40_n04467665_12557.JPEG
alexnet,6,1147,NaN,truck,truck,cr,7547_cl_dnn_cr_truck_40_n03796401_3445.JPEG
alexnet,6,1148,NaN,truck,truck,cr,7548_cl_dnn_cr_truck_40_n03796401_44.JPEG
alexnet,6,1149,NaN,truck,truck,cr,7549_cl_dnn_cr_truck_40_n03417042_1000.JPEG
alexnet,6,1150,NaN,truck,truck,cr,7550_cl_dnn_cr_truck_40_n03417042_1031.JPEG
alexnet,6,1151,NaN,truck,truck,cr,7551_cl_dnn_cr_truck_40_n03417042_25264.JPEG
alexnet,6,1152,NaN,truck,truck,cr,7552_cl_dnn_cr_truck_40_n03796401_3471.JPEG
alexnet,6,1153,NaN,truck,truck,cr,7553_cl_dnn_cr_truck_40_n03796401_1009.JPEG
alexnet,6,1154,NaN,truck,truck,cr,7554_cl_dnn_cr_truck_40_n03796401_588.JPEG
alexnet,6,1155,NaN,truck,truck,cr,7555_cl_dnn_cr_truck_40_n03796401_3910.JPEG
alexnet,6,1156,NaN,truck,truck,cr,7556_cl_dnn_cr_truck_40_n03417042_9480.JPEG
alexnet,6,1157,NaN,truck,truck,cr,7557_cl_dnn_cr_truck_40_n04467665_2451.JPEG
alexnet,6,1158,NaN,truck,truck,cr,7558_cl_dnn_cr_truck_40_n03796401_10519.JPEG
alexnet,6,1159,NaN,truck,truck,cr,7559_cl_dnn_cr_truck_40_n04467665_71305.JPEG
alexnet,6,1160,NaN,airplane,truck,cr,7560_cl_dnn_cr_truck_40_n03417042_28552.JPEG
alexnet,6,1161,NaN,car,car,cr,7561_cl_dnn_cr_car_40_n04285008_9456.JPEG
alexnet,6,1162,NaN,car,car,cr,7562_cl_dnn_cr_car_40_n02814533_83237.JPEG
alexnet,6,1163,NaN,car,car,cr,7563_cl_dnn_cr_car_40_n02814533_52263.JPEG
alexnet,6,1164,NaN,car,car,cr,7564_cl_dnn_cr_car_40_n03100240_9639.JPEG
alexnet,6,1165,NaN,car,car,cr,7565_cl_dnn_cr_car_40_n03100240_13345.JPEG
alexnet,6,1166,NaN,car,car,cr,7566_cl_dnn_cr_car_40_n03100240_6144.JPEG
alexnet,6,1167,NaN,car,car,cr,7567_cl_dnn_cr_car_40_n02814533_86973.JPEG
alexnet,6,1168,NaN,car,car,cr,7568_cl_dnn_cr_car_40_n04285008_13055.JPEG
alexnet,6,1169,NaN,car,car,cr,7569_cl_dnn_cr_car_40_n04285008_5791.JPEG
alexnet,6,1170,NaN,car,car,cr,7570_cl_dnn_cr_car_40_n04285008_6271.JPEG
alexnet,6,1171,NaN,car,car,cr,7571_cl_dnn_cr_car_40_n02814533_33631.JPEG
alexnet,6,1172,NaN,truck,car,cr,7572_cl_dnn_cr_car_40_n02814533_38775.JPEG
alexnet,6,1173,NaN,car,car,cr,7573_cl_dnn_cr_car_40_n02814533_2792.JPEG
alexnet,6,1174,NaN,car,car,cr,7574_cl_dnn_cr_car_40_n03100240_151.JPEG
alexnet,6,1175,NaN,car,car,cr,7575_cl_dnn_cr_car_40_n02814533_27090.JPEG
alexnet,6,1176,NaN,car,car,cr,7576_cl_dnn_cr_car_40_n04285008_7446.JPEG
alexnet,6,1177,NaN,car,car,cr,7577_cl_dnn_cr_car_40_n02814533_27818.JPEG
alexnet,6,1178,NaN,car,car,cr,7578_cl_dnn_cr_car_40_n04285008_12289.JPEG
alexnet,6,1179,NaN,car,car,cr,7579_cl_dnn_cr_car_40_n02814533_52810.JPEG
alexnet,6,1180,NaN,car,car,cr,7580_cl_dnn_cr_car_40_n02814533_21263.JPEG
alexnet,6,1181,NaN,car,car,cr,7581_cl_dnn_cr_car_40_n04285008_7204.JPEG
alexnet,6,1182,NaN,car,car,cr,7582_cl_dnn_cr_car_40_n02814533_11124.JPEG
alexnet,6,1183,NaN,car,car,cr,7583_cl_dnn_cr_car_40_n04285008_5139.JPEG
alexnet,6,1184,NaN,car,car,cr,7584_cl_dnn_cr_car_40_n02814533_26659.JPEG
alexnet,6,1185,NaN,car,car,cr,7585_cl_dnn_cr_car_40_n03100240_5569.JPEG
alexnet,6,1186,NaN,car,car,cr,7586_cl_dnn_cr_car_40_n03100240_9422.JPEG
alexnet,6,1187,NaN,car,car,cr,7587_cl_dnn_cr_car_40_n04285008_7231.JPEG
alexnet,6,1188,NaN,car,car,cr,7588_cl_dnn_cr_car_40_n02814533_43509.JPEG
alexnet,6,1189,NaN,car,car,cr,7589_cl_dnn_cr_car_40_n02814533_5529.JPEG
alexnet,6,1190,NaN,car,car,cr,7590_cl_dnn_cr_car_40_n04285008_11808.JPEG
alexnet,6,1191,NaN,car,car,cr,7591_cl_dnn_cr_car_40_n03100240_595.JPEG
alexnet,6,1192,NaN,car,car,cr,7592_cl_dnn_cr_car_40_n02814533_6101.JPEG
alexnet,6,1193,NaN,car,car,cr,7593_cl_dnn_cr_car_40_n03100240_8465.JPEG
alexnet,6,1194,NaN,car,car,cr,7594_cl_dnn_cr_car_40_n02814533_40393.JPEG
alexnet,6,1195,NaN,car,car,cr,7595_cl_dnn_cr_car_40_n04285008_11352.JPEG
alexnet,6,1196,NaN,car,car,cr,7596_cl_dnn_cr_car_40_n02814533_39461.JPEG
alexnet,6,1197,NaN,car,car,cr,7597_cl_dnn_cr_car_40_n04285008_9107.JPEG
alexnet,6,1198,NaN,car,car,cr,7598_cl_dnn_cr_car_40_n02814533_90072.JPEG
alexnet,6,1199,NaN,car,car,cr,7599_cl_dnn_cr_car_40_n02814533_596.JPEG
alexnet,6,1200,NaN,car,car,cr,7600_cl_dnn_cr_car_40_n03100240_16907.JPEG
alexnet,6,1201,NaN,bird,bird,cr,7601_cl_dnn_cr_bird_40_n01855032_5378.JPEG
alexnet,6,1202,NaN,bird,bird,cr,7602_cl_dnn_cr_bird_40_n02013706_7438.JPEG
alexnet,6,1203,NaN,bird,bird,cr,7603_cl_dnn_cr_bird_40_n02011460_3362.JPEG
alexnet,6,1204,NaN,bird,bird,cr,7604_cl_dnn_cr_bird_40_n01530575_10664.JPEG
alexnet,6,1205,NaN,bird,bird,cr,7605_cl_dnn_cr_bird_40_n02018795_3738.JPEG
alexnet,6,1206,NaN,bird,bird,cr,7606_cl_dnn_cr_bird_40_n02002724_7244.JPEG
alexnet,6,1207,NaN,bird,bird,cr,7607_cl_dnn_cr_bird_40_n01855032_8567.JPEG
alexnet,6,1208,NaN,bird,bird,cr,7608_cl_dnn_cr_bird_40_n01797886_6404.JPEG
alexnet,6,1209,NaN,bird,bird,cr,7609_cl_dnn_cr_bird_40_n02018795_13580.JPEG
alexnet,6,1210,NaN,bird,bird,cr,7610_cl_dnn_cr_bird_40_n02018207_2162.JPEG
alexnet,6,1211,NaN,bird,bird,cr,7611_cl_dnn_cr_bird_40_n02033041_69.JPEG
alexnet,6,1212,NaN,bird,bird,cr,7612_cl_dnn_cr_bird_40_n02028035_2156.JPEG
alexnet,6,1213,NaN,bird,bird,cr,7613_cl_dnn_cr_bird_40_n02028035_7841.JPEG
alexnet,6,1214,NaN,bird,bird,cr,7614_cl_dnn_cr_bird_40_n01531178_6919.JPEG
alexnet,6,1215,NaN,bird,bird,cr,7615_cl_dnn_cr_bird_40_n02025239_909.JPEG
alexnet,6,1216,NaN,bird,bird,cr,7616_cl_dnn_cr_bird_40_n01530575_10485.JPEG
alexnet,6,1217,NaN,bird,bird,cr,7617_cl_dnn_cr_bird_40_n01532829_39441.JPEG
alexnet,6,1218,NaN,bird,bird,cr,7618_cl_dnn_cr_bird_40_n01530575_2149.JPEG
alexnet,6,1219,NaN,bird,bird,cr,7619_cl_dnn_cr_bird_40_n02009229_4756.JPEG
alexnet,6,1220,NaN,bird,bird,cr,7620_cl_dnn_cr_bird_40_n02056570_9929.JPEG
alexnet,6,1221,NaN,bird,bird,cr,7621_cl_dnn_cr_bird_40_n01843065_3624.JPEG
alexnet,6,1222,NaN,bird,bird,cr,7622_cl_dnn_cr_bird_40_n01560419_5117.JPEG
alexnet,6,1223,NaN,bird,bird,cr,7623_cl_dnn_cr_bird_40_n02027492_7823.JPEG
alexnet,6,1224,NaN,elephant,bird,cr,7624_cl_dnn_cr_bird_40_n01614925_1688.JPEG
alexnet,6,1225,NaN,bird,bird,cr,7625_cl_dnn_cr_bird_40_n02028035_4497.JPEG
alexnet,6,1226,NaN,bird,bird,cr,7626_cl_dnn_cr_bird_40_n01531178_9864.JPEG
alexnet,6,1227,NaN,bird,bird,cr,7627_cl_dnn_cr_bird_40_n01795545_11300.JPEG
alexnet,6,1228,NaN,bird,bird,cr,7628_cl_dnn_cr_bird_40_n01537544_25654.JPEG
alexnet,6,1229,NaN,bird,bird,cr,7629_cl_dnn_cr_bird_40_n02011460_7654.JPEG
alexnet,6,1230,NaN,bird,bird,cr,7630_cl_dnn_cr_bird_40_n01817953_1059.JPEG
alexnet,6,1231,NaN,bird,bird,cr,7631_cl_dnn_cr_bird_40_n02009912_36395.JPEG
alexnet,6,1232,NaN,bird,bird,cr,7632_cl_dnn_cr_bird_40_n01798484_5481.JPEG
alexnet,6,1233,NaN,bird,bird,cr,7633_cl_dnn_cr_bird_40_n02009229_1619.JPEG
alexnet,6,1234,NaN,bird,bird,cr,7634_cl_dnn_cr_bird_40_n01818515_32161.JPEG
alexnet,6,1235,NaN,bird,bird,cr,7635_cl_dnn_cr_bird_40_n01843383_6032.JPEG
alexnet,6,1236,NaN,bird,bird,cr,7636_cl_dnn_cr_bird_40_n02013706_2215.JPEG
alexnet,6,1237,NaN,bird,bird,cr,7637_cl_dnn_cr_bird_40_n01797886_15785.JPEG
alexnet,6,1238,NaN,bird,bird,cr,7638_cl_dnn_cr_bird_40_n01622779_5500.JPEG
alexnet,6,1239,NaN,bird,bird,cr,7639_cl_dnn_cr_bird_40_n01855032_5181.JPEG
alexnet,6,1240,NaN,bird,bird,cr,7640_cl_dnn_cr_bird_40_n01855672_12995.JPEG
alexnet,6,1241,NaN,dog,dog,cr,7641_cl_dnn_cr_dog_40_n02107908_10894.JPEG
alexnet,6,1242,NaN,dog,dog,cr,7642_cl_dnn_cr_dog_40_n02096437_1424.JPEG
alexnet,6,1243,NaN,dog,dog,cr,7643_cl_dnn_cr_dog_40_n02100735_4716.JPEG
alexnet,6,1244,NaN,dog,dog,cr,7644_cl_dnn_cr_dog_40_n02090379_2771.JPEG
alexnet,6,1245,NaN,dog,dog,cr,7645_cl_dnn_cr_dog_40_n02088238_8073.JPEG
alexnet,6,1246,NaN,dog,dog,cr,7646_cl_dnn_cr_dog_40_n02092002_8891.JPEG
alexnet,6,1247,NaN,dog,dog,cr,7647_cl_dnn_cr_dog_40_n02096585_596.JPEG
alexnet,6,1248,NaN,dog,dog,cr,7648_cl_dnn_cr_dog_40_n02113624_7416.JPEG
alexnet,6,1249,NaN,dog,dog,cr,7649_cl_dnn_cr_dog_40_n02107142_45125.JPEG
alexnet,6,1250,NaN,dog,dog,cr,7650_cl_dnn_cr_dog_40_n02107574_300.JPEG
alexnet,6,1251,NaN,dog,dog,cr,7651_cl_dnn_cr_dog_40_n02101556_7078.JPEG
alexnet,6,1252,NaN,dog,dog,cr,7652_cl_dnn_cr_dog_40_n02097658_3764.JPEG
alexnet,6,1253,NaN,dog,dog,cr,7653_cl_dnn_cr_dog_40_n02107683_5643.JPEG
alexnet,6,1254,NaN,dog,dog,cr,7654_cl_dnn_cr_dog_40_n02102040_6615.JPEG
alexnet,6,1255,NaN,dog,dog,cr,7655_cl_dnn_cr_dog_40_n02105251_8296.JPEG
alexnet,6,1256,NaN,dog,dog,cr,7656_cl_dnn_cr_dog_40_n02097474_16370.JPEG
alexnet,6,1257,NaN,dog,dog,cr,7657_cl_dnn_cr_dog_40_n02102177_1039.JPEG
alexnet,6,1258,NaN,dog,dog,cr,7658_cl_dnn_cr_dog_40_n02111277_1311.JPEG
alexnet,6,1259,NaN,dog,dog,cr,7659_cl_dnn_cr_dog_40_n02093647_4579.JPEG
alexnet,6,1260,NaN,dog,dog,cr,7660_cl_dnn_cr_dog_40_n02107908_8760.JPEG
alexnet,6,1261,NaN,dog,dog,cr,7661_cl_dnn_cr_dog_40_n02092339_2180.JPEG
alexnet,6,1262,NaN,dog,dog,cr,7662_cl_dnn_cr_dog_40_n02090379_11660.JPEG
alexnet,6,1263,NaN,dog,dog,cr,7663_cl_dnn_cr_dog_40_n02108000_7510.JPEG
alexnet,6,1264,NaN,dog,dog,cr,7664_cl_dnn_cr_dog_40_n02100877_7039.JPEG
alexnet,6,1265,NaN,dog,dog,cr,7665_cl_dnn_cr_dog_40_n02093754_4387.JPEG
alexnet,6,1266,NaN,dog,dog,cr,7666_cl_dnn_cr_dog_40_n02113712_1933.JPEG
alexnet,6,1267,NaN,dog,dog,cr,7667_cl_dnn_cr_dog_40_n02093256_12918.JPEG
alexnet,6,1268,NaN,dog,dog,cr,7668_cl_dnn_cr_dog_40_n02100583_854.JPEG
