subj,session,trial,rt,object_response,category,condition,imagename
vgg,2,1,NaN,chair,knife,bw,1281_cl_dnn_bw_knife_40_n03041632_18766.JPEG
vgg,2,2,NaN,knife,knife,bw,1282_cl_dnn_bw_knife_40_n03041632_94620.JPEG
vgg,2,3,NaN,knife,knife,bw,1283_cl_dnn_bw_knife_40_n03041632_16020.JPEG
vgg,2,4,NaN,knife,knife,bw,1284_cl_dnn_bw_knife_40_n03041632_14224.JPEG
vgg,2,5,NaN,knife,knife,bw,1285_cl_dnn_bw_knife_40_n03041632_8618.JPEG
vgg,2,6,NaN,knife,knife,bw,1286_cl_dnn_bw_knife_40_n03041632_92063.JPEG
vgg,2,7,NaN,knife,knife,bw,1287_cl_dnn_bw_knife_40_n03041632_10796.JPEG
vgg,2,8,NaN,knife,knife,bw,1288_cl_dnn_bw_knife_40_n03041632_40887.JPEG
vgg,2,9,NaN,knife,knife,bw,1289_cl_dnn_bw_knife_40_n03041632_18995.JPEG
vgg,2,10,NaN,knife,knife,bw,1290_cl_dnn_bw_knife_40_n03041632_10136.JPEG
vgg,2,11,NaN,knife,knife,bw,1291_cl_dnn_bw_knife_40_n03041632_10802.JPEG
vgg,2,12,NaN,keyboard,knife,bw,1292_cl_dnn_bw_knife_40_n03041632_36215.JPEG
vgg,2,13,NaN,knife,knife,bw,1293_cl_dnn_bw_knife_40_n03041632_21723.JPEG
vgg,2,14,NaN,knife,knife,bw,1294_cl_dnn_bw_knife_40_n03041632_91582.JPEG
vgg,2,15,NaN,knife,knife,bw,1295_cl_dnn_bw_knife_40_n03041632_35260.JPEG
vgg,2,16,NaN,knife,knife,bw,1296_cl_dnn_bw_knife_40_n03041632_20504.JPEG
vgg,2,17,NaN,knife,knife,bw,1297_cl_dnn_bw_knife_40_n03041632_1143.JPEG
vgg,2,18,NaN,knife,knife,bw,1298_cl_dnn_bw_knife_40_n03041632_8666.JPEG
vgg,2,19,NaN,knife,knife,bw,1299_cl_dnn_bw_knife_40_n03041632_22964.JPEG
vgg,2,20,NaN,knife,knife,bw,1300_cl_dnn_bw_knife_40_n03041632_19614.JPEG
vgg,2,21,NaN,knife,knife,bw,1301_cl_dnn_bw_knife_40_n03041632_11603.JPEG
vgg,2,22,NaN,knife,knife,bw,1302_cl_dnn_bw_knife_40_n03041632_21472.JPEG
vgg,2,23,NaN,knife,knife,bw,1303_cl_dnn_bw_knife_40_n03041632_4714.JPEG
vgg,2,24,NaN,knife,knife,bw,1304_cl_dnn_bw_knife_40_n03041632_37274.JPEG
vgg,2,25,NaN,knife,knife,bw,1305_cl_dnn_bw_knife_40_n03041632_4975.JPEG
vgg,2,26,NaN,knife,knife,bw,1306_cl_dnn_bw_knife_40_n03041632_29886.JPEG
vgg,2,27,NaN,knife,knife,bw,1307_cl_dnn_bw_knife_40_n03041632_50648.JPEG
vgg,2,28,NaN,knife,knife,bw,1308_cl_dnn_bw_knife_40_n03041632_99460.JPEG
vgg,2,29,NaN,knife,knife,bw,1309_cl_dnn_bw_knife_40_n03041632_9488.JPEG
vgg,2,30,NaN,chair,knife,bw,1310_cl_dnn_bw_knife_40_n03041632_7707.JPEG
vgg,2,31,NaN,bicycle,knife,bw,1311_cl_dnn_bw_knife_40_n03041632_27709.JPEG
vgg,2,32,NaN,knife,knife,bw,1312_cl_dnn_bw_knife_40_n03041632_15444.JPEG
vgg,2,33,NaN,bottle,knife,bw,1313_cl_dnn_bw_knife_40_n03041632_13518.JPEG
vgg,2,34,NaN,knife,knife,bw,1314_cl_dnn_bw_knife_40_n03041632_47743.JPEG
vgg,2,35,NaN,knife,knife,bw,1315_cl_dnn_bw_knife_40_n03041632_31301.JPEG
vgg,2,36,NaN,knife,knife,bw,1316_cl_dnn_bw_knife_40_n03041632_3516.JPEG
vgg,2,37,NaN,knife,knife,bw,1317_cl_dnn_bw_knife_40_n03041632_32774.JPEG
vgg,2,38,NaN,chair,knife,bw,1318_cl_dnn_bw_knife_40_n03041632_18126.JPEG
vgg,2,39,NaN,knife,knife,bw,1319_cl_dnn_bw_knife_40_n03041632_11773.JPEG
vgg,2,40,NaN,knife,knife,bw,1320_cl_dnn_bw_knife_40_n03041632_20413.JPEG
vgg,2,41,NaN,keyboard,keyboard,bw,1321_cl_dnn_bw_keyboard_40_n03085013_22744.JPEG
vgg,2,42,NaN,keyboard,keyboard,bw,1322_cl_dnn_bw_keyboard_40_n04505470_3122.JPEG
vgg,2,43,NaN,keyboard,keyboard,bw,1323_cl_dnn_bw_keyboard_40_n04505470_1464.JPEG
vgg,2,44,NaN,chair,keyboard,bw,1324_cl_dnn_bw_keyboard_40_n04505470_494.JPEG
vgg,2,45,NaN,keyboard,keyboard,bw,1325_cl_dnn_bw_keyboard_40_n04505470_1067.JPEG
vgg,2,46,NaN,keyboard,keyboard,bw,1326_cl_dnn_bw_keyboard_40_n04505470_6662.JPEG
vgg,2,47,NaN,keyboard,keyboard,bw,1327_cl_dnn_bw_keyboard_40_n04505470_10722.JPEG
vgg,2,48,NaN,keyboard,keyboard,bw,1328_cl_dnn_bw_keyboard_40_n04505470_8148.JPEG
vgg,2,49,NaN,keyboard,keyboard,bw,1329_cl_dnn_bw_keyboard_40_n04505470_10337.JPEG
vgg,2,50,NaN,keyboard,keyboard,bw,1330_cl_dnn_bw_keyboard_40_n03085013_2255.JPEG
vgg,2,51,NaN,keyboard,keyboard,bw,1331_cl_dnn_bw_keyboard_40_n03085013_5714.JPEG
vgg,2,52,NaN,keyboard,keyboard,bw,1332_cl_dnn_bw_keyboard_40_n04505470_4628.JPEG
vgg,2,53,NaN,keyboard,keyboard,bw,1333_cl_dnn_bw_keyboard_40_n03085013_19436.JPEG
vgg,2,54,NaN,keyboard,keyboard,bw,1334_cl_dnn_bw_keyboard_40_n04505470_1794.JPEG
vgg,2,55,NaN,keyboard,keyboard,bw,1335_cl_dnn_bw_keyboard_40_n03085013_22719.JPEG
vgg,2,56,NaN,keyboard,keyboard,bw,1336_cl_dnn_bw_keyboard_40_n03085013_5726.JPEG
vgg,2,57,NaN,keyboard,keyboard,bw,1337_cl_dnn_bw_keyboard_40_n04505470_4273.JPEG
vgg,2,58,NaN,keyboard,keyboard,bw,1338_cl_dnn_bw_keyboard_40_n03085013_29865.JPEG
vgg,2,59,NaN,keyboard,keyboard,bw,1339_cl_dnn_bw_keyboard_40_n04505470_4951.JPEG
vgg,2,60,NaN,keyboard,keyboard,bw,1340_cl_dnn_bw_keyboard_40_n04505470_4828.JPEG
vgg,2,61,NaN,keyboard,keyboard,bw,1341_cl_dnn_bw_keyboard_40_n04505470_186.JPEG
vgg,2,62,NaN,keyboard,keyboard,bw,1342_cl_dnn_bw_keyboard_40_n03085013_17305.JPEG
vgg,2,63,NaN,keyboard,keyboard,bw,1343_cl_dnn_bw_keyboard_40_n03085013_11682.JPEG
vgg,2,64,NaN,keyboard,keyboard,bw,1344_cl_dnn_bw_keyboard_40_n04505470_4724.JPEG
vgg,2,65,NaN,keyboard,keyboard,bw,1345_cl_dnn_bw_keyboard_40_n04505470_2421.JPEG
vgg,2,66,NaN,keyboard,keyboard,bw,1346_cl_dnn_bw_keyboard_40_n03085013_18746.JPEG
vgg,2,67,NaN,keyboard,keyboard,bw,1347_cl_dnn_bw_keyboard_40_n03085013_20186.JPEG
vgg,2,68,NaN,keyboard,keyboard,bw,1348_cl_dnn_bw_keyboard_40_n03085013_22759.JPEG
vgg,2,69,NaN,keyboard,keyboard,bw,1349_cl_dnn_bw_keyboard_40_n03085013_23596.JPEG
vgg,2,70,NaN,keyboard,keyboard,bw,1350_cl_dnn_bw_keyboard_40_n03085013_20843.JPEG
vgg,2,71,NaN,keyboard,keyboard,bw,1351_cl_dnn_bw_keyboard_40_n04505470_4348.JPEG
vgg,2,72,NaN,keyboard,keyboard,bw,1352_cl_dnn_bw_keyboard_40_n03085013_19197.JPEG
vgg,2,73,NaN,keyboard,keyboard,bw,1353_cl_dnn_bw_keyboard_40_n04505470_589.JPEG
vgg,2,74,NaN,keyboard,keyboard,bw,1354_cl_dnn_bw_keyboard_40_n03085013_919.JPEG
vgg,2,75,NaN,keyboard,keyboard,bw,1355_cl_dnn_bw_keyboard_40_n03085013_20553.JPEG
vgg,2,76,NaN,keyboard,keyboard,bw,1356_cl_dnn_bw_keyboard_40_n04505470_3335.JPEG
vgg,2,77,NaN,keyboard,keyboard,bw,1357_cl_dnn_bw_keyboard_40_n03085013_4636.JPEG
vgg,2,78,NaN,keyboard,keyboard,bw,1358_cl_dnn_bw_keyboard_40_n03085013_5738.JPEG
vgg,2,79,NaN,keyboard,keyboard,bw,1359_cl_dnn_bw_keyboard_40_n03085013_24144.JPEG
vgg,2,80,NaN,keyboard,keyboard,bw,1360_cl_dnn_bw_keyboard_40_n04505470_250.JPEG
vgg,2,81,NaN,dog,elephant,bw,1361_cl_dnn_bw_elephant_40_n02504458_8015.JPEG
vgg,2,82,NaN,elephant,elephant,bw,1362_cl_dnn_bw_elephant_40_n02504013_9614.JPEG
vgg,2,83,NaN,elephant,elephant,bw,1363_cl_dnn_bw_elephant_40_n02504013_3418.JPEG
vgg,2,84,NaN,dog,elephant,bw,1364_cl_dnn_bw_elephant_40_n02504013_1669.JPEG
vgg,2,85,NaN,elephant,elephant,bw,1365_cl_dnn_bw_elephant_40_n02504458_710.JPEG
vgg,2,86,NaN,elephant,elephant,bw,1366_cl_dnn_bw_elephant_40_n02504458_4819.JPEG
vgg,2,87,NaN,elephant,elephant,bw,1367_cl_dnn_bw_elephant_40_n02504013_5216.JPEG
vgg,2,88,NaN,elephant,elephant,bw,1368_cl_dnn_bw_elephant_40_n02504458_6749.JPEG
vgg,2,89,NaN,elephant,elephant,bw,1369_cl_dnn_bw_elephant_40_n02504458_6202.JPEG
vgg,2,90,NaN,elephant,elephant,bw,1370_cl_dnn_bw_elephant_40_n02504458_4864.JPEG
vgg,2,91,NaN,elephant,elephant,bw,1371_cl_dnn_bw_elephant_40_n02504013_2033.JPEG
vgg,2,92,NaN,elephant,elephant,bw,1372_cl_dnn_bw_elephant_40_n02504458_5444.JPEG
vgg,2,93,NaN,elephant,elephant,bw,1373_cl_dnn_bw_elephant_40_n02504013_459.JPEG
vgg,2,94,NaN,bird,elephant,bw,1374_cl_dnn_bw_elephant_40_n02504458_3777.JPEG
vgg,2,95,NaN,elephant,elephant,bw,1375_cl_dnn_bw_elephant_40_n02504458_7977.JPEG
vgg,2,96,NaN,elephant,elephant,bw,1376_cl_dnn_bw_elephant_40_n02504458_4187.JPEG
vgg,2,97,NaN,elephant,elephant,bw,1377_cl_dnn_bw_elephant_40_n02504458_5539.JPEG
vgg,2,98,NaN,elephant,elephant,bw,1378_cl_dnn_bw_elephant_40_n02504458_592.JPEG
vgg,2,99,NaN,elephant,elephant,bw,1379_cl_dnn_bw_elephant_40_n02504013_7753.JPEG
vgg,2,100,NaN,elephant,elephant,bw,1380_cl_dnn_bw_elephant_40_n02504013_1502.JPEG
vgg,2,101,NaN,elephant,elephant,bw,1381_cl_dnn_bw_elephant_40_n02504458_4010.JPEG
vgg,2,102,NaN,elephant,elephant,bw,1382_cl_dnn_bw_elephant_40_n02504013_22704.JPEG
vgg,2,103,NaN,elephant,elephant,bw,1383_cl_dnn_bw_elephant_40_n02504458_3068.JPEG
vgg,2,104,NaN,elephant,elephant,bw,1384_cl_dnn_bw_elephant_40_n02504013_6619.JPEG
vgg,2,105,NaN,elephant,elephant,bw,1385_cl_dnn_bw_elephant_40_n02504013_2394.JPEG
vgg,2,106,NaN,elephant,elephant,bw,1386_cl_dnn_bw_elephant_40_n02504458_2244.JPEG
vgg,2,107,NaN,elephant,elephant,bw,1387_cl_dnn_bw_elephant_40_n02504013_1372.JPEG
vgg,2,108,NaN,elephant,elephant,bw,1388_cl_dnn_bw_elephant_40_n02504013_6904.JPEG
vgg,2,109,NaN,elephant,elephant,bw,1389_cl_dnn_bw_elephant_40_n02504458_631.JPEG
vgg,2,110,NaN,elephant,elephant,bw,1390_cl_dnn_bw_elephant_40_n02504013_2209.JPEG
vgg,2,111,NaN,elephant,elephant,bw,1391_cl_dnn_bw_elephant_40_n02504013_13418.JPEG
vgg,2,112,NaN,elephant,elephant,bw,1392_cl_dnn_bw_elephant_40_n02504013_6170.JPEG
vgg,2,113,NaN,elephant,elephant,bw,1393_cl_dnn_bw_elephant_40_n02504013_2808.JPEG
vgg,2,114,NaN,elephant,elephant,bw,1394_cl_dnn_bw_elephant_40_n02504013_1257.JPEG
vgg,2,115,NaN,elephant,elephant,bw,1395_cl_dnn_bw_elephant_40_n02504013_256.JPEG
vgg,2,116,NaN,elephant,elephant,bw,1396_cl_dnn_bw_elephant_40_n02504013_411.JPEG
vgg,2,117,NaN,elephant,elephant,bw,1397_cl_dnn_bw_elephant_40_n02504458_3057.JPEG
vgg,2,118,NaN,elephant,elephant,bw,1398_cl_dnn_bw_elephant_40_n02504013_2945.JPEG
vgg,2,119,NaN,elephant,elephant,bw,1399_cl_dnn_bw_elephant_40_n02504458_35.JPEG
vgg,2,120,NaN,elephant,elephant,bw,1400_cl_dnn_bw_elephant_40_n02504458_7901.JPEG
vgg,2,121,NaN,bicycle,bicycle,bw,1401_cl_dnn_bw_bicycle_40_n03792782_9086.JPEG
vgg,2,122,NaN,bicycle,bicycle,bw,1402_cl_dnn_bw_bicycle_40_n03792782_16558.JPEG
vgg,2,123,NaN,bicycle,bicycle,bw,1403_cl_dnn_bw_bicycle_40_n03792782_65868.JPEG
vgg,2,124,NaN,bicycle,bicycle,bw,1404_cl_dnn_bw_bicycle_40_n03792782_877.JPEG
vgg,2,125,NaN,bicycle,bicycle,bw,1405_cl_dnn_bw_bicycle_40_n03792782_18484.JPEG
vgg,2,126,NaN,bicycle,bicycle,bw,1406_cl_dnn_bw_bicycle_40_n02835271_19711.JPEG
vgg,2,127,NaN,bicycle,bicycle,bw,1407_cl_dnn_bw_bicycle_40_n03792782_11331.JPEG
vgg,2,128,NaN,bicycle,bicycle,bw,1408_cl_dnn_bw_bicycle_40_n02835271_9690.JPEG
vgg,2,129,NaN,bicycle,bicycle,bw,1409_cl_dnn_bw_bicycle_40_n02835271_3841.JPEG
vgg,2,130,NaN,bicycle,bicycle,bw,1410_cl_dnn_bw_bicycle_40_n03792782_7820.JPEG
vgg,2,131,NaN,bicycle,bicycle,bw,1411_cl_dnn_bw_bicycle_40_n02835271_7976.JPEG
vgg,2,132,NaN,bicycle,bicycle,bw,1412_cl_dnn_bw_bicycle_40_n03792782_12751.JPEG
vgg,2,133,NaN,bicycle,bicycle,bw,1413_cl_dnn_bw_bicycle_40_n02835271_22061.JPEG
vgg,2,134,NaN,dog,bicycle,bw,1414_cl_dnn_bw_bicycle_40_n02835271_2075.JPEG
vgg,2,135,NaN,bicycle,bicycle,bw,1415_cl_dnn_bw_bicycle_40_n03792782_7165.JPEG
vgg,2,136,NaN,bicycle,bicycle,bw,1416_cl_dnn_bw_bicycle_40_n02835271_7438.JPEG
vgg,2,137,NaN,bicycle,bicycle,bw,1417_cl_dnn_bw_bicycle_40_n03792782_19774.JPEG
vgg,2,138,NaN,bicycle,bicycle,bw,1418_cl_dnn_bw_bicycle_40_n03792782_36658.JPEG
vgg,2,139,NaN,bicycle,bicycle,bw,1419_cl_dnn_bw_bicycle_40_n02835271_7426.JPEG
vgg,2,140,NaN,bicycle,bicycle,bw,1420_cl_dnn_bw_bicycle_40_n02835271_14909.JPEG
vgg,2,141,NaN,bicycle,bicycle,bw,1421_cl_dnn_bw_bicycle_40_n03792782_6048.JPEG
vgg,2,142,NaN,bicycle,bicycle,bw,1422_cl_dnn_bw_bicycle_40_n02835271_6002.JPEG
vgg,2,143,NaN,bicycle,bicycle,bw,1423_cl_dnn_bw_bicycle_40_n02835271_24791.JPEG
vgg,2,144,NaN,bicycle,bicycle,bw,1424_cl_dnn_bw_bicycle_40_n03792782_5959.JPEG
vgg,2,145,NaN,bicycle,bicycle,bw,1425_cl_dnn_bw_bicycle_40_n03792782_57971.JPEG
vgg,2,146,NaN,bicycle,bicycle,bw,1426_cl_dnn_bw_bicycle_40_n02835271_3812.JPEG
vgg,2,147,NaN,bicycle,bicycle,bw,1427_cl_dnn_bw_bicycle_40_n02835271_20903.JPEG
vgg,2,148,NaN,bicycle,bicycle,bw,1428_cl_dnn_bw_bicycle_40_n03792782_13608.JPEG
vgg,2,149,NaN,bicycle,bicycle,bw,1429_cl_dnn_bw_bicycle_40_n03792782_12665.JPEG
vgg,2,150,NaN,bicycle,bicycle,bw,1430_cl_dnn_bw_bicycle_40_n03792782_29108.JPEG
vgg,2,151,NaN,bicycle,bicycle,bw,1431_cl_dnn_bw_bicycle_40_n02835271_8137.JPEG
vgg,2,152,NaN,bicycle,bicycle,bw,1432_cl_dnn_bw_bicycle_40_n03792782_15614.JPEG
vgg,2,153,NaN,bicycle,bicycle,bw,1433_cl_dnn_bw_bicycle_40_n02835271_1721.JPEG
vgg,2,154,NaN,bicycle,bicycle,bw,1434_cl_dnn_bw_bicycle_40_n02835271_2686.JPEG
vgg,2,155,NaN,bicycle,bicycle,bw,1435_cl_dnn_bw_bicycle_40_n02835271_19565.JPEG
vgg,2,156,NaN,bicycle,bicycle,bw,1436_cl_dnn_bw_bicycle_40_n03792782_6894.JPEG
vgg,2,157,NaN,bicycle,bicycle,bw,1437_cl_dnn_bw_bicycle_40_n03792782_68417.JPEG
vgg,2,158,NaN,bicycle,bicycle,bw,1438_cl_dnn_bw_bicycle_40_n02835271_1031.JPEG
vgg,2,159,NaN,bicycle,bicycle,bw,1439_cl_dnn_bw_bicycle_40_n03792782_30942.JPEG
vgg,2,160,NaN,bicycle,bicycle,bw,1440_cl_dnn_bw_bicycle_40_n03792782_5232.JPEG
vgg,2,161,NaN,airplane,airplane,bw,1441_cl_dnn_bw_airplane_40_n02690373_7053.JPEG
vgg,2,162,NaN,airplane,airplane,bw,1442_cl_dnn_bw_airplane_40_n02690373_2408.JPEG
vgg,2,163,NaN,airplane,airplane,bw,1443_cl_dnn_bw_airplane_40_n02690373_4727.JPEG
vgg,2,164,NaN,airplane,airplane,bw,1444_cl_dnn_bw_airplane_40_n02690373_5564.JPEG
vgg,2,165,NaN,airplane,airplane,bw,1445_cl_dnn_bw_airplane_40_n02690373_2700.JPEG
vgg,2,166,NaN,airplane,airplane,bw,1446_cl_dnn_bw_airplane_40_n02690373_7573.JPEG
vgg,2,167,NaN,airplane,airplane,bw,1447_cl_dnn_bw_airplane_40_n02690373_5790.JPEG
vgg,2,168,NaN,airplane,airplane,bw,1448_cl_dnn_bw_airplane_40_n02690373_190.JPEG
vgg,2,169,NaN,airplane,airplane,bw,1449_cl_dnn_bw_airplane_40_n02690373_8252.JPEG
vgg,2,170,NaN,airplane,airplane,bw,1450_cl_dnn_bw_airplane_40_n02690373_980.JPEG
vgg,2,171,NaN,airplane,airplane,bw,1451_cl_dnn_bw_airplane_40_n02690373_8613.JPEG
vgg,2,172,NaN,airplane,airplane,bw,1452_cl_dnn_bw_airplane_40_n02690373_2521.JPEG
vgg,2,173,NaN,airplane,airplane,bw,1453_cl_dnn_bw_airplane_40_n02690373_2342.JPEG
vgg,2,174,NaN,airplane,airplane,bw,1454_cl_dnn_bw_airplane_40_n02690373_12929.JPEG
vgg,2,175,NaN,airplane,airplane,bw,1455_cl_dnn_bw_airplane_40_n02690373_3139.JPEG
vgg,2,176,NaN,airplane,airplane,bw,1456_cl_dnn_bw_airplane_40_n02690373_3415.JPEG
vgg,2,177,NaN,airplane,airplane,bw,1457_cl_dnn_bw_airplane_40_n02690373_4434.JPEG
vgg,2,178,NaN,airplane,airplane,bw,1458_cl_dnn_bw_airplane_40_n02690373_7647.JPEG
vgg,2,179,NaN,airplane,airplane,bw,1459_cl_dnn_bw_airplane_40_n02690373_757.JPEG
vgg,2,180,NaN,airplane,airplane,bw,1460_cl_dnn_bw_airplane_40_n02690373_4591.JPEG
vgg,2,181,NaN,airplane,airplane,bw,1461_cl_dnn_bw_airplane_40_n02690373_3047.JPEG
vgg,2,182,NaN,airplane,airplane,bw,1462_cl_dnn_bw_airplane_40_n02690373_5221.JPEG
vgg,2,183,NaN,airplane,airplane,bw,1463_cl_dnn_bw_airplane_40_n02690373_1611.JPEG
vgg,2,184,NaN,airplane,airplane,bw,1464_cl_dnn_bw_airplane_40_n02690373_5160.JPEG
vgg,2,185,NaN,airplane,airplane,bw,1465_cl_dnn_bw_airplane_40_n02690373_9533.JPEG
vgg,2,186,NaN,airplane,airplane,bw,1466_cl_dnn_bw_airplane_40_n02690373_1075.JPEG
vgg,2,187,NaN,airplane,airplane,bw,1467_cl_dnn_bw_airplane_40_n02690373_8631.JPEG
vgg,2,188,NaN,airplane,airplane,bw,1468_cl_dnn_bw_airplane_40_n02690373_6516.JPEG
vgg,2,189,NaN,airplane,airplane,bw,1469_cl_dnn_bw_airplane_40_n02690373_15392.JPEG
vgg,2,190,NaN,airplane,airplane,bw,1470_cl_dnn_bw_airplane_40_n02690373_9264.JPEG
vgg,2,191,NaN,airplane,airplane,bw,1471_cl_dnn_bw_airplane_40_n02690373_12966.JPEG
vgg,2,192,NaN,airplane,airplane,bw,1472_cl_dnn_bw_airplane_40_n02690373_3821.JPEG
vgg,2,193,NaN,airplane,airplane,bw,1473_cl_dnn_bw_airplane_40_n02690373_9762.JPEG
vgg,2,194,NaN,airplane,airplane,bw,1474_cl_dnn_bw_airplane_40_n02690373_20011.JPEG
vgg,2,195,NaN,airplane,airplane,bw,1475_cl_dnn_bw_airplane_40_n02690373_6535.JPEG
vgg,2,196,NaN,airplane,airplane,bw,1476_cl_dnn_bw_airplane_40_n02690373_7536.JPEG
vgg,2,197,NaN,airplane,airplane,bw,1477_cl_dnn_bw_airplane_40_n02690373_1023.JPEG
vgg,2,198,NaN,airplane,airplane,bw,1478_cl_dnn_bw_airplane_40_n02690373_9322.JPEG
vgg,2,199,NaN,airplane,airplane,bw,1479_cl_dnn_bw_airplane_40_n02690373_2038.JPEG
vgg,2,200,NaN,airplane,airplane,bw,1480_cl_dnn_bw_airplane_40_n02690373_13617.JPEG
vgg,2,201,NaN,clock,clock,bw,1481_cl_dnn_bw_clock_40_n02708093_1430.JPEG
vgg,2,202,NaN,chair,clock,bw,1482_cl_dnn_bw_clock_40_n02708093_3305.JPEG
vgg,2,203,NaN,clock,clock,bw,1483_cl_dnn_bw_clock_40_n04548280_20369.JPEG
vgg,2,204,NaN,clock,clock,bw,1484_cl_dnn_bw_clock_40_n03196217_1406.JPEG
vgg,2,205,NaN,clock,clock,bw,1485_cl_dnn_bw_clock_40_n04548280_541.JPEG
vgg,2,206,NaN,clock,clock,bw,1486_cl_dnn_bw_clock_40_n04548280_4354.JPEG
vgg,2,207,NaN,clock,clock,bw,1487_cl_dnn_bw_clock_40_n02708093_309.JPEG
vgg,2,208,NaN,clock,clock,bw,1488_cl_dnn_bw_clock_40_n04548280_4951.JPEG
vgg,2,209,NaN,clock,clock,bw,1489_cl_dnn_bw_clock_40_n04548280_5544.JPEG
vgg,2,210,NaN,clock,clock,bw,1490_cl_dnn_bw_clock_40_n04548280_6039.JPEG
vgg,2,211,NaN,clock,clock,bw,1491_cl_dnn_bw_clock_40_n04548280_2045.JPEG
vgg,2,212,NaN,clock,clock,bw,1492_cl_dnn_bw_clock_40_n02708093_1505.JPEG
vgg,2,213,NaN,clock,clock,bw,1493_cl_dnn_bw_clock_40_n04548280_1114.JPEG
vgg,2,214,NaN,clock,clock,bw,1494_cl_dnn_bw_clock_40_n03196217_5581.JPEG
vgg,2,215,NaN,clock,clock,bw,1495_cl_dnn_bw_clock_40_n02708093_7251.JPEG
vgg,2,216,NaN,clock,clock,bw,1496_cl_dnn_bw_clock_40_n03196217_3742.JPEG
vgg,2,217,NaN,clock,clock,bw,1497_cl_dnn_bw_clock_40_n03196217_993.JPEG
vgg,2,218,NaN,clock,clock,bw,1498_cl_dnn_bw_clock_40_n04548280_5459.JPEG
vgg,2,219,NaN,clock,clock,bw,1499_cl_dnn_bw_clock_40_n02708093_564.JPEG
vgg,2,220,NaN,clock,clock,bw,1500_cl_dnn_bw_clock_40_n03196217_108.JPEG
vgg,2,221,NaN,clock,clock,bw,1501_cl_dnn_bw_clock_40_n02708093_1206.JPEG
vgg,2,222,NaN,clock,clock,bw,1502_cl_dnn_bw_clock_40_n02708093_852.JPEG
vgg,2,223,NaN,clock,clock,bw,1503_cl_dnn_bw_clock_40_n03196217_5518.JPEG
vgg,2,224,NaN,clock,clock,bw,1504_cl_dnn_bw_clock_40_n04548280_5978.JPEG
vgg,2,225,NaN,clock,clock,bw,1505_cl_dnn_bw_clock_40_n04548280_5937.JPEG
vgg,2,226,NaN,clock,clock,bw,1506_cl_dnn_bw_clock_40_n04548280_11412.JPEG
vgg,2,227,NaN,clock,clock,bw,1507_cl_dnn_bw_clock_40_n02708093_1108.JPEG
vgg,2,228,NaN,clock,clock,bw,1508_cl_dnn_bw_clock_40_n03196217_4578.JPEG
vgg,2,229,NaN,clock,clock,bw,1509_cl_dnn_bw_clock_40_n02708093_8143.JPEG
vgg,2,230,NaN,clock,clock,bw,1510_cl_dnn_bw_clock_40_n02708093_6857.JPEG
vgg,2,231,NaN,clock,clock,bw,1511_cl_dnn_bw_clock_40_n03196217_10219.JPEG
vgg,2,232,NaN,clock,clock,bw,1512_cl_dnn_bw_clock_40_n03196217_3647.JPEG
vgg,2,233,NaN,clock,clock,bw,1513_cl_dnn_bw_clock_40_n02708093_2094.JPEG
vgg,2,234,NaN,clock,clock,bw,1514_cl_dnn_bw_clock_40_n04548280_1329.JPEG
vgg,2,235,NaN,clock,clock,bw,1515_cl_dnn_bw_clock_40_n03196217_6526.JPEG
vgg,2,236,NaN,clock,clock,bw,1516_cl_dnn_bw_clock_40_n03196217_4224.JPEG
vgg,2,237,NaN,clock,clock,bw,1517_cl_dnn_bw_clock_40_n03196217_5636.JPEG
vgg,2,238,NaN,clock,clock,bw,1518_cl_dnn_bw_clock_40_n02708093_1431.JPEG
vgg,2,239,NaN,clock,clock,bw,1519_cl_dnn_bw_clock_40_n03196217_12852.JPEG
vgg,2,240,NaN,clock,clock,bw,1520_cl_dnn_bw_clock_40_n04548280_2177.JPEG
vgg,2,241,NaN,chair,oven,bw,1521_cl_dnn_bw_oven_40_n04111531_9548.JPEG
vgg,2,242,NaN,oven,oven,bw,1522_cl_dnn_bw_oven_40_n04111531_8868.JPEG
vgg,2,243,NaN,oven,oven,bw,1523_cl_dnn_bw_oven_40_n04111531_4984.JPEG
vgg,2,244,NaN,oven,oven,bw,1524_cl_dnn_bw_oven_40_n04111531_23215.JPEG
vgg,2,245,NaN,oven,oven,bw,1525_cl_dnn_bw_oven_40_n04111531_8959.JPEG
vgg,2,246,NaN,truck,oven,bw,1526_cl_dnn_bw_oven_40_n04111531_13113.JPEG
vgg,2,247,NaN,oven,oven,bw,1527_cl_dnn_bw_oven_40_n04111531_15682.JPEG
vgg,2,248,NaN,chair,oven,bw,1528_cl_dnn_bw_oven_40_n04111531_13590.JPEG
vgg,2,249,NaN,oven,oven,bw,1529_cl_dnn_bw_oven_40_n04111531_2209.JPEG
vgg,2,250,NaN,oven,oven,bw,1530_cl_dnn_bw_oven_40_n04111531_18520.JPEG
vgg,2,251,NaN,oven,oven,bw,1531_cl_dnn_bw_oven_40_n04111531_2163.JPEG
vgg,2,252,NaN,oven,oven,bw,1532_cl_dnn_bw_oven_40_n04111531_10399.JPEG
vgg,2,253,NaN,oven,oven,bw,1533_cl_dnn_bw_oven_40_n04111531_7130.JPEG
vgg,2,254,NaN,oven,oven,bw,1534_cl_dnn_bw_oven_40_n04111531_73.JPEG
vgg,2,255,NaN,oven,oven,bw,1535_cl_dnn_bw_oven_40_n04111531_14848.JPEG
vgg,2,256,NaN,oven,oven,bw,1536_cl_dnn_bw_oven_40_n04111531_5126.JPEG
vgg,2,257,NaN,oven,oven,bw,1537_cl_dnn_bw_oven_40_n04111531_2795.JPEG
vgg,2,258,NaN,oven,oven,bw,1538_cl_dnn_bw_oven_40_n04111531_3345.JPEG
vgg,2,259,NaN,oven,oven,bw,1539_cl_dnn_bw_oven_40_n04111531_19795.JPEG
vgg,2,260,NaN,oven,oven,bw,1540_cl_dnn_bw_oven_40_n04111531_12589.JPEG
vgg,2,261,NaN,chair,oven,bw,1541_cl_dnn_bw_oven_40_n04111531_81.JPEG
vgg,2,262,NaN,oven,oven,bw,1542_cl_dnn_bw_oven_40_n04111531_690.JPEG
vgg,2,263,NaN,oven,oven,bw,1543_cl_dnn_bw_oven_40_n04111531_21351.JPEG
vgg,2,264,NaN,oven,oven,bw,1544_cl_dnn_bw_oven_40_n04111531_4370.JPEG
vgg,2,265,NaN,oven,oven,bw,1545_cl_dnn_bw_oven_40_n04111531_13247.JPEG
vgg,2,266,NaN,oven,oven,bw,1546_cl_dnn_bw_oven_40_n04111531_11225.JPEG
vgg,2,267,NaN,oven,oven,bw,1547_cl_dnn_bw_oven_40_n04111531_5533.JPEG
vgg,2,268,NaN,oven,oven,bw,1548_cl_dnn_bw_oven_40_n04111531_6400.JPEG
vgg,2,269,NaN,oven,oven,bw,1549_cl_dnn_bw_oven_40_n04111531_3193.JPEG
vgg,2,270,NaN,oven,oven,bw,1550_cl_dnn_bw_oven_40_n04111531_8441.JPEG
vgg,2,271,NaN,dog,oven,bw,1551_cl_dnn_bw_oven_40_n04111531_8181.JPEG
vgg,2,272,NaN,oven,oven,bw,1552_cl_dnn_bw_oven_40_n04111531_1723.JPEG
vgg,2,273,NaN,oven,oven,bw,1553_cl_dnn_bw_oven_40_n04111531_3611.JPEG
vgg,2,274,NaN,oven,oven,bw,1554_cl_dnn_bw_oven_40_n04111531_2116.JPEG
vgg,2,275,NaN,oven,oven,bw,1555_cl_dnn_bw_oven_40_n04111531_10465.JPEG
vgg,2,276,NaN,oven,oven,bw,1556_cl_dnn_bw_oven_40_n04111531_12702.JPEG
vgg,2,277,NaN,chair,oven,bw,1557_cl_dnn_bw_oven_40_n04111531_15718.JPEG
vgg,2,278,NaN,oven,oven,bw,1558_cl_dnn_bw_oven_40_n04111531_4795.JPEG
vgg,2,279,NaN,oven,oven,bw,1559_cl_dnn_bw_oven_40_n04111531_5110.JPEG
vgg,2,280,NaN,oven,oven,bw,1560_cl_dnn_bw_oven_40_n04111531_1362.JPEG
vgg,2,281,NaN,chair,chair,bw,1561_cl_dnn_bw_chair_40_n04099969_9302.JPEG
vgg,2,282,NaN,chair,chair,bw,1562_cl_dnn_bw_chair_40_n02791124_422.JPEG
vgg,2,283,NaN,chair,chair,bw,1563_cl_dnn_bw_chair_40_n02791124_2954.JPEG
vgg,2,284,NaN,chair,chair,bw,1564_cl_dnn_bw_chair_40_n04099969_1814.JPEG
vgg,2,285,NaN,chair,chair,bw,1565_cl_dnn_bw_chair_40_n03376595_16706.JPEG
vgg,2,286,NaN,chair,chair,bw,1566_cl_dnn_bw_chair_40_n04429376_4941.JPEG
vgg,2,287,NaN,chair,chair,bw,1567_cl_dnn_bw_chair_40_n04099969_21118.JPEG
vgg,2,288,NaN,chair,chair,bw,1568_cl_dnn_bw_chair_40_n03376595_13949.JPEG
vgg,2,289,NaN,chair,chair,bw,1569_cl_dnn_bw_chair_40_n04099969_8993.JPEG
vgg,2,290,NaN,chair,chair,bw,1570_cl_dnn_bw_chair_40_n02791124_6390.JPEG
vgg,2,291,NaN,chair,chair,bw,1571_cl_dnn_bw_chair_40_n04099969_1444.JPEG
vgg,2,292,NaN,chair,chair,bw,1572_cl_dnn_bw_chair_40_n04429376_27889.JPEG
vgg,2,293,NaN,chair,chair,bw,1573_cl_dnn_bw_chair_40_n02791124_6222.JPEG
vgg,2,294,NaN,chair,chair,bw,1574_cl_dnn_bw_chair_40_n04429376_8751.JPEG
vgg,2,295,NaN,chair,chair,bw,1575_cl_dnn_bw_chair_40_n04099969_7530.JPEG
vgg,2,296,NaN,chair,chair,bw,1576_cl_dnn_bw_chair_40_n04429376_24699.JPEG
vgg,2,297,NaN,chair,chair,bw,1577_cl_dnn_bw_chair_40_n04099969_3804.JPEG
vgg,2,298,NaN,chair,chair,bw,1578_cl_dnn_bw_chair_40_n03376595_10700.JPEG
vgg,2,299,NaN,chair,chair,bw,1579_cl_dnn_bw_chair_40_n04429376_20896.JPEG
vgg,2,300,NaN,chair,chair,bw,1580_cl_dnn_bw_chair_40_n03376595_3887.JPEG
vgg,2,301,NaN,chair,chair,bw,1581_cl_dnn_bw_chair_40_n04099969_3210.JPEG
vgg,2,302,NaN,chair,chair,bw,1582_cl_dnn_bw_chair_40_n04099969_2707.JPEG
vgg,2,303,NaN,chair,chair,bw,1583_cl_dnn_bw_chair_40_n03376595_9753.JPEG
vgg,2,304,NaN,chair,chair,bw,1584_cl_dnn_bw_chair_40_n03376595_14087.JPEG
vgg,2,305,NaN,chair,chair,bw,1585_cl_dnn_bw_chair_40_n03376595_11654.JPEG
vgg,2,306,NaN,chair,chair,bw,1586_cl_dnn_bw_chair_40_n04429376_15860.JPEG
vgg,2,307,NaN,chair,chair,bw,1587_cl_dnn_bw_chair_40_n04099969_13841.JPEG
vgg,2,308,NaN,chair,chair,bw,1588_cl_dnn_bw_chair_40_n04429376_20837.JPEG
vgg,2,309,NaN,chair,chair,bw,1589_cl_dnn_bw_chair_40_n04429376_3278.JPEG
vgg,2,310,NaN,chair,chair,bw,1590_cl_dnn_bw_chair_40_n02791124_15457.JPEG
vgg,2,311,NaN,chair,chair,bw,1591_cl_dnn_bw_chair_40_n04099969_12537.JPEG
vgg,2,312,NaN,chair,chair,bw,1592_cl_dnn_bw_chair_40_n02791124_3657.JPEG
vgg,2,313,NaN,chair,chair,bw,1593_cl_dnn_bw_chair_40_n02791124_5825.JPEG
vgg,2,314,NaN,chair,chair,bw,1594_cl_dnn_bw_chair_40_n03376595_2898.JPEG
vgg,2,315,NaN,chair,chair,bw,1595_cl_dnn_bw_chair_40_n04099969_14851.JPEG
vgg,2,316,NaN,chair,chair,bw,1596_cl_dnn_bw_chair_40_n02791124_3710.JPEG
vgg,2,317,NaN,chair,chair,bw,1597_cl_dnn_bw_chair_40_n04099969_20464.JPEG
vgg,2,318,NaN,chair,chair,bw,1598_cl_dnn_bw_chair_40_n04099969_22250.JPEG
vgg,2,319,NaN,chair,chair,bw,1599_cl_dnn_bw_chair_40_n04429376_8902.JPEG
vgg,2,320,NaN,chair,chair,bw,1600_cl_dnn_bw_chair_40_n03376595_7391.JPEG
vgg,2,321,NaN,bear,bear,bw,1601_cl_dnn_bw_bear_40_n02132136_5184.JPEG
vgg,2,322,NaN,bear,bear,bw,1602_cl_dnn_bw_bear_40_n02132136_8160.JPEG
vgg,2,323,NaN,bear,bear,bw,1603_cl_dnn_bw_bear_40_n02132136_3985.JPEG
vgg,2,324,NaN,bear,bear,bw,1604_cl_dnn_bw_bear_40_n02134084_1346.JPEG
vgg,2,325,NaN,bear,bear,bw,1605_cl_dnn_bw_bear_40_n02134084_16747.JPEG
vgg,2,326,NaN,dog,bear,bw,1606_cl_dnn_bw_bear_40_n02132136_15687.JPEG
vgg,2,327,NaN,bear,bear,bw,1607_cl_dnn_bw_bear_40_n02134084_1554.JPEG
vgg,2,328,NaN,bear,bear,bw,1608_cl_dnn_bw_bear_40_n02134084_8215.JPEG
vgg,2,329,NaN,bear,bear,bw,1609_cl_dnn_bw_bear_40_n02132136_3003.JPEG
vgg,2,330,NaN,bear,bear,bw,1610_cl_dnn_bw_bear_40_n02134418_1202.JPEG
vgg,2,331,NaN,bear,bear,bw,1611_cl_dnn_bw_bear_40_n02132136_28984.JPEG
vgg,2,332,NaN,bear,bear,bw,1612_cl_dnn_bw_bear_40_n02134084_712.JPEG
vgg,2,333,NaN,bear,bear,bw,1613_cl_dnn_bw_bear_40_n02134084_2605.JPEG
vgg,2,334,NaN,bear,bear,bw,1614_cl_dnn_bw_bear_40_n02134418_14961.JPEG
vgg,2,335,NaN,bear,bear,bw,1615_cl_dnn_bw_bear_40_n02133161_9950.JPEG
vgg,2,336,NaN,dog,bear,bw,1616_cl_dnn_bw_bear_40_n02132136_3936.JPEG
vgg,2,337,NaN,bear,bear,bw,1617_cl_dnn_bw_bear_40_n02132136_17297.JPEG
vgg,2,338,NaN,bear,bear,bw,1618_cl_dnn_bw_bear_40_n02132136_33642.JPEG
vgg,2,339,NaN,bear,bear,bw,1619_cl_dnn_bw_bear_40_n02134418_178.JPEG
vgg,2,340,NaN,bear,bear,bw,1620_cl_dnn_bw_bear_40_n02133161_12944.JPEG
vgg,2,341,NaN,bear,bear,bw,1621_cl_dnn_bw_bear_40_n02134418_523.JPEG
vgg,2,342,NaN,bear,bear,bw,1622_cl_dnn_bw_bear_40_n02134418_5673.JPEG
vgg,2,343,NaN,bear,bear,bw,1623_cl_dnn_bw_bear_40_n02132136_14985.JPEG
vgg,2,344,NaN,bear,bear,bw,1624_cl_dnn_bw_bear_40_n02134084_2866.JPEG
vgg,2,345,NaN,bear,bear,bw,1625_cl_dnn_bw_bear_40_n02134418_3570.JPEG
vgg,2,346,NaN,bear,bear,bw,1626_cl_dnn_bw_bear_40_n02132136_13578.JPEG
vgg,2,347,NaN,bear,bear,bw,1627_cl_dnn_bw_bear_40_n02133161_2711.JPEG
vgg,2,348,NaN,bear,bear,bw,1628_cl_dnn_bw_bear_40_n02134418_962.JPEG
vgg,2,349,NaN,bear,bear,bw,1629_cl_dnn_bw_bear_40_n02134418_82.JPEG
vgg,2,350,NaN,bear,bear,bw,1630_cl_dnn_bw_bear_40_n02133161_4832.JPEG
vgg,2,351,NaN,bear,bear,bw,1631_cl_dnn_bw_bear_40_n02134418_2793.JPEG
vgg,2,352,NaN,bear,bear,bw,1632_cl_dnn_bw_bear_40_n02134084_24179.JPEG
vgg,2,353,NaN,bear,bear,bw,1633_cl_dnn_bw_bear_40_n02132136_111.JPEG
vgg,2,354,NaN,bear,bear,bw,1634_cl_dnn_bw_bear_40_n02132136_2810.JPEG
vgg,2,355,NaN,bear,bear,bw,1635_cl_dnn_bw_bear_40_n02134084_6558.JPEG
vgg,2,356,NaN,bear,bear,bw,1636_cl_dnn_bw_bear_40_n02134084_4818.JPEG
vgg,2,357,NaN,dog,bear,bw,1637_cl_dnn_bw_bear_40_n02132136_6266.JPEG
vgg,2,358,NaN,bear,bear,bw,1638_cl_dnn_bw_bear_40_n02132136_31305.JPEG
vgg,2,359,NaN,bear,bear,bw,1639_cl_dnn_bw_bear_40_n02134084_23061.JPEG
vgg,2,360,NaN,bear,bear,bw,1640_cl_dnn_bw_bear_40_n02134418_4915.JPEG
vgg,2,361,NaN,boat,boat,bw,1641_cl_dnn_bw_boat_40_n03662601_21748.JPEG
vgg,2,362,NaN,boat,boat,bw,1642_cl_dnn_bw_boat_40_n03662601_11276.JPEG
vgg,2,363,NaN,boat,boat,bw,1643_cl_dnn_bw_boat_40_n03344393_6713.JPEG
vgg,2,364,NaN,boat,boat,bw,1644_cl_dnn_bw_boat_40_n04612504_7559.JPEG
vgg,2,365,NaN,boat,boat,bw,1645_cl_dnn_bw_boat_40_n03344393_8347.JPEG
vgg,2,366,NaN,boat,boat,bw,1646_cl_dnn_bw_boat_40_n04612504_2024.JPEG
vgg,2,367,NaN,boat,boat,bw,1647_cl_dnn_bw_boat_40_n03662601_27330.JPEG
vgg,2,368,NaN,boat,boat,bw,1648_cl_dnn_bw_boat_40_n04612504_18442.JPEG
vgg,2,369,NaN,boat,boat,bw,1649_cl_dnn_bw_boat_40_n03662601_18186.JPEG
vgg,2,370,NaN,boat,boat,bw,1650_cl_dnn_bw_boat_40_n02951358_4609.JPEG
vgg,2,371,NaN,boat,boat,bw,1651_cl_dnn_bw_boat_40_n03662601_16943.JPEG
vgg,2,372,NaN,boat,boat,bw,1652_cl_dnn_bw_boat_40_n04612504_2858.JPEG
vgg,2,373,NaN,boat,boat,bw,1653_cl_dnn_bw_boat_40_n03662601_12778.JPEG
vgg,2,374,NaN,boat,boat,bw,1654_cl_dnn_bw_boat_40_n03344393_4086.JPEG
vgg,2,375,NaN,boat,boat,bw,1655_cl_dnn_bw_boat_40_n03662601_34149.JPEG
vgg,2,376,NaN,boat,boat,bw,1656_cl_dnn_bw_boat_40_n02951358_7830.JPEG
vgg,2,377,NaN,boat,boat,bw,1657_cl_dnn_bw_boat_40_n02951358_31735.JPEG
vgg,2,378,NaN,boat,boat,bw,1658_cl_dnn_bw_boat_40_n02951358_12897.JPEG
vgg,2,379,NaN,boat,boat,bw,1659_cl_dnn_bw_boat_40_n04273569_6180.JPEG
vgg,2,380,NaN,boat,boat,bw,1660_cl_dnn_bw_boat_40_n04273569_26499.JPEG
vgg,2,381,NaN,boat,boat,bw,1661_cl_dnn_bw_boat_40_n03662601_4925.JPEG
vgg,2,382,NaN,boat,boat,bw,1662_cl_dnn_bw_boat_40_n02951358_10519.JPEG
vgg,2,383,NaN,boat,boat,bw,1663_cl_dnn_bw_boat_40_n03344393_7366.JPEG
vgg,2,384,NaN,boat,boat,bw,1664_cl_dnn_bw_boat_40_n04273569_9873.JPEG
vgg,2,385,NaN,boat,boat,bw,1665_cl_dnn_bw_boat_40_n04612504_18939.JPEG
vgg,2,386,NaN,boat,boat,bw,1666_cl_dnn_bw_boat_40_n03344393_8649.JPEG
vgg,2,387,NaN,boat,boat,bw,1667_cl_dnn_bw_boat_40_n02951358_29729.JPEG
vgg,2,388,NaN,boat,boat,bw,1668_cl_dnn_bw_boat_40_n02951358_11549.JPEG
vgg,2,389,NaN,boat,boat,bw,1669_cl_dnn_bw_boat_40_n03344393_7100.JPEG
vgg,2,390,NaN,boat,boat,bw,1670_cl_dnn_bw_boat_40_n03344393_1581.JPEG
vgg,2,391,NaN,boat,boat,bw,1671_cl_dnn_bw_boat_40_n02951358_7075.JPEG
vgg,2,392,NaN,boat,boat,bw,1672_cl_dnn_bw_boat_40_n04273569_14418.JPEG
vgg,2,393,NaN,dog,boat,bw,1673_cl_dnn_bw_boat_40_n03344393_3752.JPEG
vgg,2,394,NaN,boat,boat,bw,1674_cl_dnn_bw_boat_40_n03662601_25257.JPEG
vgg,2,395,NaN,boat,boat,bw,1675_cl_dnn_bw_boat_40_n03662601_1798.JPEG
vgg,2,396,NaN,boat,boat,bw,1676_cl_dnn_bw_boat_40_n04273569_12650.JPEG
vgg,2,397,NaN,truck,boat,bw,1677_cl_dnn_bw_boat_40_n03344393_8602.JPEG
vgg,2,398,NaN,boat,boat,bw,1678_cl_dnn_bw_boat_40_n04273569_31564.JPEG
vgg,2,399,NaN,boat,boat,bw,1679_cl_dnn_bw_boat_40_n04273569_3439.JPEG
vgg,2,400,NaN,bicycle,boat,bw,1680_cl_dnn_bw_boat_40_n03662601_873.JPEG
vgg,2,401,NaN,cat,cat,bw,1681_cl_dnn_bw_cat_40_n02125311_2576.JPEG
vgg,2,402,NaN,cat,cat,bw,1682_cl_dnn_bw_cat_40_n02123597_10667.JPEG
vgg,2,403,NaN,cat,cat,bw,1683_cl_dnn_bw_cat_40_n02125311_35583.JPEG
vgg,2,404,NaN,cat,cat,bw,1684_cl_dnn_bw_cat_40_n02125311_59462.JPEG
vgg,2,405,NaN,cat,cat,bw,1685_cl_dnn_bw_cat_40_n02123394_7478.JPEG
vgg,2,406,NaN,cat,cat,bw,1686_cl_dnn_bw_cat_40_n02123394_200.JPEG
vgg,2,407,NaN,cat,cat,bw,1687_cl_dnn_bw_cat_40_n02125311_53142.JPEG
vgg,2,408,NaN,cat,cat,bw,1688_cl_dnn_bw_cat_40_n02123045_9176.JPEG
vgg,2,409,NaN,cat,cat,bw,1689_cl_dnn_bw_cat_40_n02125311_57826.JPEG
vgg,2,410,NaN,cat,cat,bw,1690_cl_dnn_bw_cat_40_n02123045_8419.JPEG
vgg,2,411,NaN,cat,cat,bw,1691_cl_dnn_bw_cat_40_n02123159_6185.JPEG
vgg,2,412,NaN,cat,cat,bw,1692_cl_dnn_bw_cat_40_n02124075_9500.JPEG
vgg,2,413,NaN,cat,cat,bw,1693_cl_dnn_bw_cat_40_n02123394_4171.JPEG
vgg,2,414,NaN,cat,cat,bw,1694_cl_dnn_bw_cat_40_n02123394_1352.JPEG
vgg,2,415,NaN,cat,cat,bw,1695_cl_dnn_bw_cat_40_n02124075_12824.JPEG
vgg,2,416,NaN,cat,cat,bw,1696_cl_dnn_bw_cat_40_n02123045_20725.JPEG
vgg,2,417,NaN,cat,cat,bw,1697_cl_dnn_bw_cat_40_n02123394_162.JPEG
vgg,2,418,NaN,bird,cat,bw,1698_cl_dnn_bw_cat_40_n02124075_20.JPEG
vgg,2,419,NaN,dog,cat,bw,1699_cl_dnn_bw_cat_40_n02123597_6434.JPEG
vgg,2,420,NaN,cat,cat,bw,1700_cl_dnn_bw_cat_40_n02123045_9721.JPEG
vgg,2,421,NaN,cat,cat,bw,1701_cl_dnn_bw_cat_40_n02123045_1438.JPEG
vgg,2,422,NaN,cat,cat,bw,1702_cl_dnn_bw_cat_40_n02123045_2009.JPEG
vgg,2,423,NaN,dog,cat,bw,1703_cl_dnn_bw_cat_40_n02123394_1122.JPEG
vgg,2,424,NaN,cat,cat,bw,1704_cl_dnn_bw_cat_40_n02123159_8160.JPEG
vgg,2,425,NaN,dog,cat,bw,1705_cl_dnn_bw_cat_40_n02123159_155.JPEG
vgg,2,426,NaN,cat,cat,bw,1706_cl_dnn_bw_cat_40_n02123597_8443.JPEG
vgg,2,427,NaN,cat,cat,bw,1707_cl_dnn_bw_cat_40_n02124075_11259.JPEG
vgg,2,428,NaN,cat,cat,bw,1708_cl_dnn_bw_cat_40_n02123394_7184.JPEG
vgg,2,429,NaN,cat,cat,bw,1709_cl_dnn_bw_cat_40_n02125311_4312.JPEG
vgg,2,430,NaN,cat,cat,bw,1710_cl_dnn_bw_cat_40_n02123045_5167.JPEG
vgg,2,431,NaN,cat,cat,bw,1711_cl_dnn_bw_cat_40_n02123394_219.JPEG
vgg,2,432,NaN,cat,cat,bw,1712_cl_dnn_bw_cat_40_n02124075_12350.JPEG
vgg,2,433,NaN,cat,cat,bw,1713_cl_dnn_bw_cat_40_n02123394_18.JPEG
vgg,2,434,NaN,cat,cat,bw,1714_cl_dnn_bw_cat_40_n02123159_6932.JPEG
vgg,2,435,NaN,cat,cat,bw,1715_cl_dnn_bw_cat_40_n02123394_7846.JPEG
vgg,2,436,NaN,cat,cat,bw,1716_cl_dnn_bw_cat_40_n02123159_4442.JPEG
vgg,2,437,NaN,cat,cat,bw,1717_cl_dnn_bw_cat_40_n02123045_5133.JPEG
vgg,2,438,NaN,cat,cat,bw,1718_cl_dnn_bw_cat_40_n02125311_21169.JPEG
vgg,2,439,NaN,cat,cat,bw,1719_cl_dnn_bw_cat_40_n02123159_698.JPEG
vgg,2,440,NaN,cat,cat,bw,1720_cl_dnn_bw_cat_40_n02124075_12108.JPEG
vgg,2,441,NaN,knife,bottle,bw,1721_cl_dnn_bw_bottle_40_n02823428_1568.JPEG
vgg,2,442,NaN,bottle,bottle,bw,1722_cl_dnn_bw_bottle_40_n02823428_4106.JPEG
vgg,2,443,NaN,bottle,bottle,bw,1723_cl_dnn_bw_bottle_40_n03937543_4614.JPEG
vgg,2,444,NaN,bottle,bottle,bw,1724_cl_dnn_bw_bottle_40_n03937543_8707.JPEG
vgg,2,445,NaN,dog,bottle,bw,1725_cl_dnn_bw_bottle_40_n03983396_1947.JPEG
vgg,2,446,NaN,bottle,bottle,bw,1726_cl_dnn_bw_bottle_40_n03937543_8390.JPEG
vgg,2,447,NaN,bottle,bottle,bw,1727_cl_dnn_bw_bottle_40_n04557648_14847.JPEG
vgg,2,448,NaN,boat,bottle,bw,1728_cl_dnn_bw_bottle_40_n04591713_3585.JPEG
vgg,2,449,NaN,bottle,bottle,bw,1729_cl_dnn_bw_bottle_40_n04557648_9375.JPEG
vgg,2,450,NaN,bottle,bottle,bw,1730_cl_dnn_bw_bottle_40_n02823428_4996.JPEG
vgg,2,451,NaN,bottle,bottle,bw,1731_cl_dnn_bw_bottle_40_n03937543_2757.JPEG
vgg,2,452,NaN,bottle,bottle,bw,1732_cl_dnn_bw_bottle_40_n04591713_364.JPEG
vgg,2,453,NaN,truck,bottle,bw,1733_cl_dnn_bw_bottle_40_n04591713_5987.JPEG
vgg,2,454,NaN,bottle,bottle,bw,1734_cl_dnn_bw_bottle_40_n04591713_4751.JPEG
vgg,2,455,NaN,clock,bottle,bw,1735_cl_dnn_bw_bottle_40_n03983396_3377.JPEG
vgg,2,456,NaN,chair,bottle,bw,1736_cl_dnn_bw_bottle_40_n03983396_3396.JPEG
vgg,2,457,NaN,bottle,bottle,bw,1737_cl_dnn_bw_bottle_40_n04579145_5214.JPEG
vgg,2,458,NaN,bottle,bottle,bw,1738_cl_dnn_bw_bottle_40_n03937543_3651.JPEG
vgg,2,459,NaN,bottle,bottle,bw,1739_cl_dnn_bw_bottle_40_n04591713_424.JPEG
vgg,2,460,NaN,bottle,bottle,bw,1740_cl_dnn_bw_bottle_40_n04560804_28.JPEG
vgg,2,461,NaN,bottle,bottle,bw,1741_cl_dnn_bw_bottle_40_n04560804_2507.JPEG
vgg,2,462,NaN,bottle,bottle,bw,1742_cl_dnn_bw_bottle_40_n03983396_3408.JPEG
vgg,2,463,NaN,bottle,bottle,bw,1743_cl_dnn_bw_bottle_40_n04557648_3624.JPEG
vgg,2,464,NaN,bottle,bottle,bw,1744_cl_dnn_bw_bottle_40_n03983396_5661.JPEG
vgg,2,465,NaN,bottle,bottle,bw,1745_cl_dnn_bw_bottle_40_n04557648_8420.JPEG
vgg,2,466,NaN,bottle,bottle,bw,1746_cl_dnn_bw_bottle_40_n04560804_1908.JPEG
vgg,2,467,NaN,bottle,bottle,bw,1747_cl_dnn_bw_bottle_40_n04557648_10893.JPEG
vgg,2,468,NaN,bottle,bottle,bw,1748_cl_dnn_bw_bottle_40_n03937543_1120.JPEG
vgg,2,469,NaN,bottle,bottle,bw,1749_cl_dnn_bw_bottle_40_n04557648_426.JPEG
vgg,2,470,NaN,bottle,bottle,bw,1750_cl_dnn_bw_bottle_40_n04557648_21975.JPEG
vgg,2,471,NaN,bottle,bottle,bw,1751_cl_dnn_bw_bottle_40_n04591713_1952.JPEG
vgg,2,472,NaN,bottle,bottle,bw,1752_cl_dnn_bw_bottle_40_n02823428_7750.JPEG
vgg,2,473,NaN,bottle,bottle,bw,1753_cl_dnn_bw_bottle_40_n04557648_1871.JPEG
vgg,2,474,NaN,bottle,bottle,bw,1754_cl_dnn_bw_bottle_40_n03983396_2754.JPEG
vgg,2,475,NaN,bottle,bottle,bw,1755_cl_dnn_bw_bottle_40_n02823428_5482.JPEG
vgg,2,476,NaN,bottle,bottle,bw,1756_cl_dnn_bw_bottle_40_n03937543_2927.JPEG
vgg,2,477,NaN,bottle,bottle,bw,1757_cl_dnn_bw_bottle_40_n02823428_6860.JPEG
vgg,2,478,NaN,bottle,bottle,bw,1758_cl_dnn_bw_bottle_40_n03983396_2998.JPEG
vgg,2,479,NaN,bottle,bottle,bw,1759_cl_dnn_bw_bottle_40_n04591713_1611.JPEG
vgg,2,480,NaN,bottle,bottle,bw,1760_cl_dnn_bw_bottle_40_n04591713_2345.JPEG
vgg,2,481,NaN,truck,truck,bw,1761_cl_dnn_bw_truck_40_n04467665_56496.JPEG
vgg,2,482,NaN,truck,truck,bw,1762_cl_dnn_bw_truck_40_n04467665_62504.JPEG
vgg,2,483,NaN,truck,truck,bw,1763_cl_dnn_bw_truck_40_n04467665_3212.JPEG
vgg,2,484,NaN,truck,truck,bw,1764_cl_dnn_bw_truck_40_n03417042_1148.JPEG
vgg,2,485,NaN,truck,truck,bw,1765_cl_dnn_bw_truck_40_n04467665_79034.JPEG
vgg,2,486,NaN,truck,truck,bw,1766_cl_dnn_bw_truck_40_n03417042_28794.JPEG
vgg,2,487,NaN,truck,truck,bw,1767_cl_dnn_bw_truck_40_n04467665_67327.JPEG
vgg,2,488,NaN,truck,truck,bw,1768_cl_dnn_bw_truck_40_n03417042_3404.JPEG
vgg,2,489,NaN,truck,truck,bw,1769_cl_dnn_bw_truck_40_n03417042_10154.JPEG
vgg,2,490,NaN,truck,truck,bw,1770_cl_dnn_bw_truck_40_n03417042_3466.JPEG
vgg,2,491,NaN,truck,truck,bw,1771_cl_dnn_bw_truck_40_n03796401_7518.JPEG
vgg,2,492,NaN,truck,truck,bw,1772_cl_dnn_bw_truck_40_n03417042_6216.JPEG
vgg,2,493,NaN,truck,truck,bw,1773_cl_dnn_bw_truck_40_n03417042_9128.JPEG
vgg,2,494,NaN,truck,truck,bw,1774_cl_dnn_bw_truck_40_n03796401_10643.JPEG
vgg,2,495,NaN,truck,truck,bw,1775_cl_dnn_bw_truck_40_n03417042_8654.JPEG
vgg,2,496,NaN,truck,truck,bw,1776_cl_dnn_bw_truck_40_n03417042_2204.JPEG
vgg,2,497,NaN,truck,truck,bw,1777_cl_dnn_bw_truck_40_n03417042_12486.JPEG
vgg,2,498,NaN,truck,truck,bw,1778_cl_dnn_bw_truck_40_n04467665_4593.JPEG
vgg,2,499,NaN,truck,truck,bw,1779_cl_dnn_bw_truck_40_n04467665_8443.JPEG
vgg,2,500,NaN,truck,truck,bw,1780_cl_dnn_bw_truck_40_n04467665_27899.JPEG
vgg,2,501,NaN,truck,truck,bw,1781_cl_dnn_bw_truck_40_n03796401_22263.JPEG
vgg,2,502,NaN,truck,truck,bw,1782_cl_dnn_bw_truck_40_n03796401_14381.JPEG
vgg,2,503,NaN,truck,truck,bw,1783_cl_dnn_bw_truck_40_n03796401_8206.JPEG
vgg,2,504,NaN,truck,truck,bw,1784_cl_dnn_bw_truck_40_n03796401_23811.JPEG
vgg,2,505,NaN,truck,truck,bw,1785_cl_dnn_bw_truck_40_n03417042_15003.JPEG
vgg,2,506,NaN,truck,truck,bw,1786_cl_dnn_bw_truck_40_n04467665_57466.JPEG
vgg,2,507,NaN,truck,truck,bw,1787_cl_dnn_bw_truck_40_n04467665_30226.JPEG
vgg,2,508,NaN,truck,truck,bw,1788_cl_dnn_bw_truck_40_n04467665_67909.JPEG
vgg,2,509,NaN,truck,truck,bw,1789_cl_dnn_bw_truck_40_n03417042_5136.JPEG
vgg,2,510,NaN,truck,truck,bw,1790_cl_dnn_bw_truck_40_n04467665_50648.JPEG
vgg,2,511,NaN,truck,truck,bw,1791_cl_dnn_bw_truck_40_n03796401_9219.JPEG
vgg,2,512,NaN,truck,truck,bw,1792_cl_dnn_bw_truck_40_n03417042_7403.JPEG
vgg,2,513,NaN,truck,truck,bw,1793_cl_dnn_bw_truck_40_n03796401_6142.JPEG
vgg,2,514,NaN,truck,truck,bw,1794_cl_dnn_bw_truck_40_n04467665_3580.JPEG
vgg,2,515,NaN,truck,truck,bw,1795_cl_dnn_bw_truck_40_n04467665_68145.JPEG
vgg,2,516,NaN,truck,truck,bw,1796_cl_dnn_bw_truck_40_n04467665_27096.JPEG
vgg,2,517,NaN,truck,truck,bw,1797_cl_dnn_bw_truck_40_n03417042_13806.JPEG
vgg,2,518,NaN,truck,truck,bw,1798_cl_dnn_bw_truck_40_n03796401_5437.JPEG
vgg,2,519,NaN,truck,truck,bw,1799_cl_dnn_bw_truck_40_n03417042_8928.JPEG
vgg,2,520,NaN,truck,truck,bw,1800_cl_dnn_bw_truck_40_n04467665_56594.JPEG
vgg,2,521,NaN,car,car,bw,1801_cl_dnn_bw_car_40_n04285008_15747.JPEG
vgg,2,522,NaN,truck,car,bw,1802_cl_dnn_bw_car_40_n02814533_41058.JPEG
vgg,2,523,NaN,car,car,bw,1803_cl_dnn_bw_car_40_n03100240_17289.JPEG
vgg,2,524,NaN,car,car,bw,1804_cl_dnn_bw_car_40_n03100240_7954.JPEG
vgg,2,525,NaN,car,car,bw,1805_cl_dnn_bw_car_40_n02814533_80187.JPEG
vgg,2,526,NaN,car,car,bw,1806_cl_dnn_bw_car_40_n03100240_14746.JPEG
vgg,2,527,NaN,truck,car,bw,1807_cl_dnn_bw_car_40_n02814533_6516.JPEG
vgg,2,528,NaN,car,car,bw,1808_cl_dnn_bw_car_40_n02814533_69153.JPEG
vgg,2,529,NaN,car,car,bw,1809_cl_dnn_bw_car_40_n03100240_14950.JPEG
vgg,2,530,NaN,car,car,bw,1810_cl_dnn_bw_car_40_n03100240_4735.JPEG
vgg,2,531,NaN,car,car,bw,1811_cl_dnn_bw_car_40_n02814533_87140.JPEG
vgg,2,532,NaN,car,car,bw,1812_cl_dnn_bw_car_40_n02814533_96791.JPEG
vgg,2,533,NaN,car,car,bw,1813_cl_dnn_bw_car_40_n02814533_21120.JPEG
vgg,2,534,NaN,car,car,bw,1814_cl_dnn_bw_car_40_n03100240_7385.JPEG
vgg,2,535,NaN,car,car,bw,1815_cl_dnn_bw_car_40_n03100240_1438.JPEG
vgg,2,536,NaN,car,car,bw,1816_cl_dnn_bw_car_40_n03100240_21243.JPEG
vgg,2,537,NaN,truck,car,bw,1817_cl_dnn_bw_car_40_n03100240_6859.JPEG
vgg,2,538,NaN,car,car,bw,1818_cl_dnn_bw_car_40_n02814533_12925.JPEG
vgg,2,539,NaN,car,car,bw,1819_cl_dnn_bw_car_40_n04285008_6920.JPEG
vgg,2,540,NaN,truck,car,bw,1820_cl_dnn_bw_car_40_n04285008_13739.JPEG
vgg,2,541,NaN,car,car,bw,1821_cl_dnn_bw_car_40_n02814533_51154.JPEG
vgg,2,542,NaN,car,car,bw,1822_cl_dnn_bw_car_40_n04285008_13292.JPEG
vgg,2,543,NaN,car,car,bw,1823_cl_dnn_bw_car_40_n03100240_2197.JPEG
vgg,2,544,NaN,truck,car,bw,1824_cl_dnn_bw_car_40_n03100240_1072.JPEG
vgg,2,545,NaN,car,car,bw,1825_cl_dnn_bw_car_40_n02814533_52039.JPEG
vgg,2,546,NaN,car,car,bw,1826_cl_dnn_bw_car_40_n02814533_8025.JPEG
vgg,2,547,NaN,truck,car,bw,1827_cl_dnn_bw_car_40_n03100240_2332.JPEG
vgg,2,548,NaN,car,car,bw,1828_cl_dnn_bw_car_40_n03100240_5479.JPEG
vgg,2,549,NaN,car,car,bw,1829_cl_dnn_bw_car_40_n04285008_7224.JPEG
vgg,2,550,NaN,car,car,bw,1830_cl_dnn_bw_car_40_n02814533_45532.JPEG
vgg,2,551,NaN,car,car,bw,1831_cl_dnn_bw_car_40_n02814533_7728.JPEG
vgg,2,552,NaN,car,car,bw,1832_cl_dnn_bw_car_40_n02814533_39667.JPEG
vgg,2,553,NaN,car,car,bw,1833_cl_dnn_bw_car_40_n04285008_7317.JPEG
vgg,2,554,NaN,car,car,bw,1834_cl_dnn_bw_car_40_n04285008_14206.JPEG
vgg,2,555,NaN,car,car,bw,1835_cl_dnn_bw_car_40_n04285008_2452.JPEG
vgg,2,556,NaN,car,car,bw,1836_cl_dnn_bw_car_40_n02814533_71946.JPEG
vgg,2,557,NaN,car,car,bw,1837_cl_dnn_bw_car_40_n04285008_14681.JPEG
vgg,2,558,NaN,car,car,bw,1838_cl_dnn_bw_car_40_n04285008_8443.JPEG
vgg,2,559,NaN,car,car,bw,1839_cl_dnn_bw_car_40_n02814533_10971.JPEG
vgg,2,560,NaN,car,car,bw,1840_cl_dnn_bw_car_40_n03100240_7139.JPEG
vgg,2,561,NaN,bird,bird,bw,1841_cl_dnn_bw_bird_40_n01531178_5331.JPEG
vgg,2,562,NaN,bird,bird,bw,1842_cl_dnn_bw_bird_40_n01532829_5015.JPEG
vgg,2,563,NaN,bird,bird,bw,1843_cl_dnn_bw_bird_40_n02051845_7660.JPEG
vgg,2,564,NaN,bird,bird,bw,1844_cl_dnn_bw_bird_40_n02002556_23887.JPEG
vgg,2,565,NaN,bird,bird,bw,1845_cl_dnn_bw_bird_40_n02025239_4809.JPEG
vgg,2,566,NaN,bird,bird,bw,1846_cl_dnn_bw_bird_40_n02011460_9355.JPEG
vgg,2,567,NaN,bird,bird,bw,1847_cl_dnn_bw_bird_40_n02028035_4101.JPEG
vgg,2,568,NaN,bird,bird,bw,1848_cl_dnn_bw_bird_40_n01531178_8912.JPEG
vgg,2,569,NaN,bird,bird,bw,1849_cl_dnn_bw_bird_40_n01616318_2621.JPEG
vgg,2,570,NaN,bird,bird,bw,1850_cl_dnn_bw_bird_40_n02037110_11013.JPEG
vgg,2,571,NaN,bird,bird,bw,1851_cl_dnn_bw_bird_40_n01855032_3235.JPEG
vgg,2,572,NaN,bird,bird,bw,1852_cl_dnn_bw_bird_40_n01855672_3447.JPEG
vgg,2,573,NaN,bird,bird,bw,1853_cl_dnn_bw_bird_40_n01829413_16545.JPEG
vgg,2,574,NaN,bird,bird,bw,1854_cl_dnn_bw_bird_40_n01558993_3663.JPEG
vgg,2,575,NaN,bird,bird,bw,1855_cl_dnn_bw_bird_40_n01855672_9109.JPEG
vgg,2,576,NaN,bird,bird,bw,1856_cl_dnn_bw_bird_40_n01817953_2102.JPEG
vgg,2,577,NaN,bird,bird,bw,1857_cl_dnn_bw_bird_40_n01796340_2597.JPEG
vgg,2,578,NaN,bird,bird,bw,1858_cl_dnn_bw_bird_40_n01855032_4640.JPEG
vgg,2,579,NaN,bird,bird,bw,1859_cl_dnn_bw_bird_40_n01796340_6905.JPEG
vgg,2,580,NaN,bird,bird,bw,1860_cl_dnn_bw_bird_40_n01616318_14509.JPEG
vgg,2,581,NaN,bird,bird,bw,1861_cl_dnn_bw_bird_40_n02002724_1450.JPEG
vgg,2,582,NaN,bird,bird,bw,1862_cl_dnn_bw_bird_40_n01855672_6012.JPEG
vgg,2,583,NaN,bird,bird,bw,1863_cl_dnn_bw_bird_40_n01795545_14182.JPEG
vgg,2,584,NaN,bird,bird,bw,1864_cl_dnn_bw_bird_40_n01616318_3962.JPEG
vgg,2,585,NaN,bird,bird,bw,1865_cl_dnn_bw_bird_40_n02007558_21494.JPEG
vgg,2,586,NaN,bird,bird,bw,1866_cl_dnn_bw_bird_40_n01824575_5668.JPEG
vgg,2,587,NaN,bird,bird,bw,1867_cl_dnn_bw_bird_40_n01843065_4888.JPEG
vgg,2,588,NaN,bird,bird,bw,1868_cl_dnn_bw_bird_40_n01829413_2533.JPEG
vgg,2,589,NaN,bird,bird,bw,1869_cl_dnn_bw_bird_40_n01824575_5373.JPEG
vgg,2,590,NaN,bird,bird,bw,1870_cl_dnn_bw_bird_40_n02051845_1311.JPEG
vgg,2,591,NaN,bird,bird,bw,1871_cl_dnn_bw_bird_40_n01855672_4967.JPEG
vgg,2,592,NaN,bird,bird,bw,1872_cl_dnn_bw_bird_40_n01537544_9030.JPEG
vgg,2,593,NaN,bird,bird,bw,1873_cl_dnn_bw_bird_40_n02025239_717.JPEG
vgg,2,594,NaN,bird,bird,bw,1874_cl_dnn_bw_bird_40_n01537544_17020.JPEG
vgg,2,595,NaN,bird,bird,bw,1875_cl_dnn_bw_bird_40_n01829413_416.JPEG
vgg,2,596,NaN,bird,bird,bw,1876_cl_dnn_bw_bird_40_n02018795_2378.JPEG
vgg,2,597,NaN,bird,bird,bw,1877_cl_dnn_bw_bird_40_n02013706_7737.JPEG
vgg,2,598,NaN,bird,bird,bw,1878_cl_dnn_bw_bird_40_n01855672_3520.JPEG
vgg,2,599,NaN,bird,bird,bw,1879_cl_dnn_bw_bird_40_n01824575_4044.JPEG
vgg,2,600,NaN,bird,bird,bw,1880_cl_dnn_bw_bird_40_n01534433_21401.JPEG
vgg,2,601,NaN,dog,dog,bw,1881_cl_dnn_bw_dog_40_n02091134_11956.JPEG
vgg,2,602,NaN,dog,dog,bw,1882_cl_dnn_bw_dog_40_n02091032_9032.JPEG
vgg,2,603,NaN,dog,dog,bw,1883_cl_dnn_bw_dog_40_n02088364_5661.JPEG
vgg,2,604,NaN,dog,dog,bw,1884_cl_dnn_bw_dog_40_n02100583_5869.JPEG
vgg,2,605,NaN,dog,dog,bw,1885_cl_dnn_bw_dog_40_n02100877_5727.JPEG
vgg,2,606,NaN,dog,dog,bw,1886_cl_dnn_bw_dog_40_n02094433_10826.JPEG
vgg,2,607,NaN,dog,dog,bw,1887_cl_dnn_bw_dog_40_n02100583_17039.JPEG
vgg,2,608,NaN,dog,dog,bw,1888_cl_dnn_bw_dog_40_n02102318_13819.JPEG
vgg,2,609,NaN,dog,dog,bw,1889_cl_dnn_bw_dog_40_n02097130_2258.JPEG
vgg,2,610,NaN,dog,dog,bw,1890_cl_dnn_bw_dog_40_n02102318_10753.JPEG
vgg,2,611,NaN,dog,dog,bw,1891_cl_dnn_bw_dog_40_n02100236_3412.JPEG
vgg,2,612,NaN,dog,dog,bw,1892_cl_dnn_bw_dog_40_n02107142_17006.JPEG
vgg,2,613,NaN,dog,dog,bw,1893_cl_dnn_bw_dog_40_n02088364_278.JPEG
vgg,2,614,NaN,dog,dog,bw,1894_cl_dnn_bw_dog_40_n02108000_7128.JPEG
vgg,2,615,NaN,dog,dog,bw,1895_cl_dnn_bw_dog_40_n02085936_8377.JPEG
vgg,2,616,NaN,dog,dog,bw,1896_cl_dnn_bw_dog_40_n02104365_1439.JPEG
vgg,2,617,NaN,dog,dog,bw,1897_cl_dnn_bw_dog_40_n02087046_20028.JPEG
vgg,2,618,NaN,dog,dog,bw,1898_cl_dnn_bw_dog_40_n02113978_3790.JPEG
vgg,2,619,NaN,dog,dog,bw,1899_cl_dnn_bw_dog_40_n02106030_7270.JPEG
vgg,2,620,NaN,dog,dog,bw,1900_cl_dnn_bw_dog_40_n02096051_3513.JPEG
vgg,2,621,NaN,dog,dog,bw,1901_cl_dnn_bw_dog_40_n02091134_14106.JPEG
vgg,2,622,NaN,dog,dog,bw,1902_cl_dnn_bw_dog_40_n02097298_9056.JPEG
vgg,2,623,NaN,dog,dog,bw,1903_cl_dnn_bw_dog_40_n02113624_7489.JPEG
vgg,2,624,NaN,dog,dog,bw,1904_cl_dnn_bw_dog_40_n02110063_15332.JPEG
vgg,2,625,NaN,dog,dog,bw,1905_cl_dnn_bw_dog_40_n02097658_10276.JPEG
vgg,2,626,NaN,dog,dog,bw,1906_cl_dnn_bw_dog_40_n02094114_3424.JPEG
vgg,2,627,NaN,dog,dog,bw,1907_cl_dnn_bw_dog_40_n02107142_11415.JPEG
vgg,2,628,NaN,dog,dog,bw,1908_cl_dnn_bw_dog_40_n02107683_577.JPEG
vgg,2,629,NaN,dog,dog,bw,1909_cl_dnn_bw_dog_40_n02088466_5030.JPEG
vgg,2,630,NaN,dog,dog,bw,1910_cl_dnn_bw_dog_40_n02095570_7005.JPEG
vgg,2,631,NaN,dog,dog,bw,1911_cl_dnn_bw_dog_40_n02108422_9266.JPEG
vgg,2,632,NaN,dog,dog,bw,1912_cl_dnn_bw_dog_40_n02091635_10426.JPEG
vgg,2,633,NaN,dog,dog,bw,1913_cl_dnn_bw_dog_40_n02099601_1462.JPEG
vgg,2,634,NaN,dog,dog,bw,1914_cl_dnn_bw_dog_40_n02099712_2590.JPEG
vgg,2,635,NaN,truck,dog,bw,1915_cl_dnn_bw_dog_40_n02102177_450.JPEG
vgg,2,636,NaN,dog,dog,bw,1916_cl_dnn_bw_dog_40_n02108000_6464.JPEG
vgg,2,637,NaN,dog,dog,bw,1917_cl_dnn_bw_dog_40_n02095314_3844.JPEG
vgg,2,638,NaN,dog,dog,bw,1918_cl_dnn_bw_dog_40_n02096294_4042.JPEG
vgg,2,639,NaN,dog,dog,bw,1919_cl_dnn_bw_dog_40_n02091467_10554.JPEG
vgg,2,640,NaN,dog,dog,bw,1920_cl_dnn_bw_dog_40_n02086079_11890.JPEG
vgg,2,641,NaN,knife,knife,cr,1921_cl_dnn_cr_knife_40_n03041632_18141.JPEG
vgg,2,642,NaN,knife,knife,cr,1922_cl_dnn_cr_knife_40_n03041632_93026.JPEG
vgg,2,643,NaN,knife,knife,cr,1923_cl_dnn_cr_knife_40_n03041632_81004.JPEG
vgg,2,644,NaN,knife,knife,cr,1924_cl_dnn_cr_knife_40_n03041632_32197.JPEG
vgg,2,645,NaN,knife,knife,cr,1925_cl_dnn_cr_knife_40_n03041632_7279.JPEG
vgg,2,646,NaN,knife,knife,cr,1926_cl_dnn_cr_knife_40_n03041632_8468.JPEG
vgg,2,647,NaN,knife,knife,cr,1927_cl_dnn_cr_knife_40_n03041632_87380.JPEG
vgg,2,648,NaN,knife,knife,cr,1928_cl_dnn_cr_knife_40_n03041632_383.JPEG
vgg,2,649,NaN,knife,knife,cr,1929_cl_dnn_cr_knife_40_n03041632_11797.JPEG
vgg,2,650,NaN,knife,knife,cr,1930_cl_dnn_cr_knife_40_n03041632_31483.JPEG
vgg,2,651,NaN,knife,knife,cr,1931_cl_dnn_cr_knife_40_n03041632_9256.JPEG
vgg,2,652,NaN,knife,knife,cr,1932_cl_dnn_cr_knife_40_n03041632_82878.JPEG
vgg,2,653,NaN,knife,knife,cr,1933_cl_dnn_cr_knife_40_n03041632_27898.JPEG
vgg,2,654,NaN,knife,knife,cr,1934_cl_dnn_cr_knife_40_n03041632_50996.JPEG
vgg,2,655,NaN,knife,knife,cr,1935_cl_dnn_cr_knife_40_n03041632_47234.JPEG
vgg,2,656,NaN,knife,knife,cr,1936_cl_dnn_cr_knife_40_n03041632_44738.JPEG
vgg,2,657,NaN,oven,knife,cr,1937_cl_dnn_cr_knife_40_n03041632_7680.JPEG
vgg,2,658,NaN,knife,knife,cr,1938_cl_dnn_cr_knife_40_n03041632_99875.JPEG
vgg,2,659,NaN,knife,knife,cr,1939_cl_dnn_cr_knife_40_n03041632_29858.JPEG
vgg,2,660,NaN,dog,knife,cr,1940_cl_dnn_cr_knife_40_n03041632_48062.JPEG
vgg,2,661,NaN,knife,knife,cr,1941_cl_dnn_cr_knife_40_n03041632_13424.JPEG
vgg,2,662,NaN,knife,knife,cr,1942_cl_dnn_cr_knife_40_n03041632_54191.JPEG
vgg,2,663,NaN,knife,knife,cr,1943_cl_dnn_cr_knife_40_n03041632_49363.JPEG
vgg,2,664,NaN,knife,knife,cr,1944_cl_dnn_cr_knife_40_n03041632_31932.JPEG
vgg,2,665,NaN,knife,knife,cr,1945_cl_dnn_cr_knife_40_n03041632_20770.JPEG
vgg,2,666,NaN,knife,knife,cr,1946_cl_dnn_cr_knife_40_n03041632_24817.JPEG
vgg,2,667,NaN,knife,knife,cr,1947_cl_dnn_cr_knife_40_n03041632_30457.JPEG
vgg,2,668,NaN,knife,knife,cr,1948_cl_dnn_cr_knife_40_n03041632_102887.JPEG
vgg,2,669,NaN,knife,knife,cr,1949_cl_dnn_cr_knife_40_n03041632_22330.JPEG
vgg,2,670,NaN,bicycle,knife,cr,1950_cl_dnn_cr_knife_40_n03041632_11887.JPEG
vgg,2,671,NaN,knife,knife,cr,1951_cl_dnn_cr_knife_40_n03041632_2438.JPEG
vgg,2,672,NaN,knife,knife,cr,1952_cl_dnn_cr_knife_40_n03041632_81471.JPEG
vgg,2,673,NaN,knife,knife,cr,1953_cl_dnn_cr_knife_40_n03041632_13478.JPEG
vgg,2,674,NaN,knife,knife,cr,1954_cl_dnn_cr_knife_40_n03041632_4787.JPEG
vgg,2,675,NaN,knife,knife,cr,1955_cl_dnn_cr_knife_40_n03041632_48071.JPEG
vgg,2,676,NaN,knife,knife,cr,1956_cl_dnn_cr_knife_40_n03041632_37513.JPEG
vgg,2,677,NaN,bottle,knife,cr,1957_cl_dnn_cr_knife_40_n03041632_98864.JPEG
vgg,2,678,NaN,knife,knife,cr,1958_cl_dnn_cr_knife_40_n03041632_5162.JPEG
vgg,2,679,NaN,knife,knife,cr,1959_cl_dnn_cr_knife_40_n03041632_35764.JPEG
vgg,2,680,NaN,knife,knife,cr,1960_cl_dnn_cr_knife_40_n03041632_55711.JPEG
vgg,2,681,NaN,keyboard,keyboard,cr,1961_cl_dnn_cr_keyboard_40_n03085013_4489.JPEG
vgg,2,682,NaN,keyboard,keyboard,cr,1962_cl_dnn_cr_keyboard_40_n04505470_3022.JPEG
vgg,2,683,NaN,keyboard,keyboard,cr,1963_cl_dnn_cr_keyboard_40_n03085013_20779.JPEG
vgg,2,684,NaN,keyboard,keyboard,cr,1964_cl_dnn_cr_keyboard_40_n04505470_10665.JPEG
vgg,2,685,NaN,keyboard,keyboard,cr,1965_cl_dnn_cr_keyboard_40_n04505470_3068.JPEG
vgg,2,686,NaN,keyboard,keyboard,cr,1966_cl_dnn_cr_keyboard_40_n03085013_21880.JPEG
vgg,2,687,NaN,keyboard,keyboard,cr,1967_cl_dnn_cr_keyboard_40_n04505470_2881.JPEG
vgg,2,688,NaN,keyboard,keyboard,cr,1968_cl_dnn_cr_keyboard_40_n04505470_961.JPEG
vgg,2,689,NaN,keyboard,keyboard,cr,1969_cl_dnn_cr_keyboard_40_n04505470_272.JPEG
vgg,2,690,NaN,keyboard,keyboard,cr,1970_cl_dnn_cr_keyboard_40_n03085013_14411.JPEG
vgg,2,691,NaN,keyboard,keyboard,cr,1971_cl_dnn_cr_keyboard_40_n04505470_5128.JPEG
vgg,2,692,NaN,keyboard,keyboard,cr,1972_cl_dnn_cr_keyboard_40_n04505470_9156.JPEG
vgg,2,693,NaN,keyboard,keyboard,cr,1973_cl_dnn_cr_keyboard_40_n04505470_990.JPEG
vgg,2,694,NaN,keyboard,keyboard,cr,1974_cl_dnn_cr_keyboard_40_n03085013_688.JPEG
vgg,2,695,NaN,keyboard,keyboard,cr,1975_cl_dnn_cr_keyboard_40_n04505470_26.JPEG
vgg,2,696,NaN,keyboard,keyboard,cr,1976_cl_dnn_cr_keyboard_40_n03085013_21602.JPEG
vgg,2,697,NaN,keyboard,keyboard,cr,1977_cl_dnn_cr_keyboard_40_n03085013_7858.JPEG
vgg,2,698,NaN,keyboard,keyboard,cr,1978_cl_dnn_cr_keyboard_40_n03085013_23635.JPEG
vgg,2,699,NaN,keyboard,keyboard,cr,1979_cl_dnn_cr_keyboard_40_n03085013_18899.JPEG
vgg,2,700,NaN,keyboard,keyboard,cr,1980_cl_dnn_cr_keyboard_40_n04505470_5275.JPEG
vgg,2,701,NaN,keyboard,keyboard,cr,1981_cl_dnn_cr_keyboard_40_n03085013_15432.JPEG
vgg,2,702,NaN,keyboard,keyboard,cr,1982_cl_dnn_cr_keyboard_40_n04505470_5156.JPEG
vgg,2,703,NaN,keyboard,keyboard,cr,1983_cl_dnn_cr_keyboard_40_n04505470_4540.JPEG
vgg,2,704,NaN,keyboard,keyboard,cr,1984_cl_dnn_cr_keyboard_40_n03085013_18878.JPEG
vgg,2,705,NaN,keyboard,keyboard,cr,1985_cl_dnn_cr_keyboard_40_n03085013_16115.JPEG
vgg,2,706,NaN,keyboard,keyboard,cr,1986_cl_dnn_cr_keyboard_40_n04505470_650.JPEG
vgg,2,707,NaN,keyboard,keyboard,cr,1987_cl_dnn_cr_keyboard_40_n04505470_4621.JPEG
vgg,2,708,NaN,keyboard,keyboard,cr,1988_cl_dnn_cr_keyboard_40_n03085013_24569.JPEG
vgg,2,709,NaN,keyboard,keyboard,cr,1989_cl_dnn_cr_keyboard_40_n03085013_10035.JPEG
vgg,2,710,NaN,keyboard,keyboard,cr,1990_cl_dnn_cr_keyboard_40_n04505470_5077.JPEG
vgg,2,711,NaN,keyboard,keyboard,cr,1991_cl_dnn_cr_keyboard_40_n03085013_24566.JPEG
vgg,2,712,NaN,keyboard,keyboard,cr,1992_cl_dnn_cr_keyboard_40_n03085013_23706.JPEG
vgg,2,713,NaN,keyboard,keyboard,cr,1993_cl_dnn_cr_keyboard_40_n04505470_3959.JPEG
vgg,2,714,NaN,keyboard,keyboard,cr,1994_cl_dnn_cr_keyboard_40_n04505470_2197.JPEG
vgg,2,715,NaN,keyboard,keyboard,cr,1995_cl_dnn_cr_keyboard_40_n03085013_24122.JPEG
vgg,2,716,NaN,keyboard,keyboard,cr,1996_cl_dnn_cr_keyboard_40_n03085013_2676.JPEG
vgg,2,717,NaN,keyboard,keyboard,cr,1997_cl_dnn_cr_keyboard_40_n03085013_21492.JPEG
vgg,2,718,NaN,keyboard,keyboard,cr,1998_cl_dnn_cr_keyboard_40_n04505470_4422.JPEG
vgg,2,719,NaN,keyboard,keyboard,cr,1999_cl_dnn_cr_keyboard_40_n03085013_23400.JPEG
vgg,2,720,NaN,keyboard,keyboard,cr,2000_cl_dnn_cr_keyboard_40_n04505470_73.JPEG
vgg,2,721,NaN,elephant,elephant,cr,2001_cl_dnn_cr_elephant_40_n02504013_7006.JPEG
vgg,2,722,NaN,elephant,elephant,cr,2002_cl_dnn_cr_elephant_40_n02504458_2041.JPEG
vgg,2,723,NaN,elephant,elephant,cr,2003_cl_dnn_cr_elephant_40_n02504458_3171.JPEG
vgg,2,724,NaN,dog,elephant,cr,2004_cl_dnn_cr_elephant_40_n02504013_1763.JPEG
vgg,2,725,NaN,elephant,elephant,cr,2005_cl_dnn_cr_elephant_40_n02504458_7745.JPEG
vgg,2,726,NaN,elephant,elephant,cr,2006_cl_dnn_cr_elephant_40_n02504458_772.JPEG
vgg,2,727,NaN,elephant,elephant,cr,2007_cl_dnn_cr_elephant_40_n02504458_5055.JPEG
vgg,2,728,NaN,elephant,elephant,cr,2008_cl_dnn_cr_elephant_40_n02504458_7076.JPEG
vgg,2,729,NaN,elephant,elephant,cr,2009_cl_dnn_cr_elephant_40_n02504458_4647.JPEG
vgg,2,730,NaN,elephant,elephant,cr,2010_cl_dnn_cr_elephant_40_n02504013_7961.JPEG
vgg,2,731,NaN,elephant,elephant,cr,2011_cl_dnn_cr_elephant_40_n02504458_2133.JPEG
vgg,2,732,NaN,elephant,elephant,cr,2012_cl_dnn_cr_elephant_40_n02504458_4207.JPEG
vgg,2,733,NaN,elephant,elephant,cr,2013_cl_dnn_cr_elephant_40_n02504458_3851.JPEG
vgg,2,734,NaN,elephant,elephant,cr,2014_cl_dnn_cr_elephant_40_n02504013_10341.JPEG
vgg,2,735,NaN,elephant,elephant,cr,2015_cl_dnn_cr_elephant_40_n02504458_563.JPEG
vgg,2,736,NaN,elephant,elephant,cr,2016_cl_dnn_cr_elephant_40_n02504013_3834.JPEG
vgg,2,737,NaN,elephant,elephant,cr,2017_cl_dnn_cr_elephant_40_n02504013_6065.JPEG
vgg,2,738,NaN,elephant,elephant,cr,2018_cl_dnn_cr_elephant_40_n02504458_3953.JPEG
vgg,2,739,NaN,elephant,elephant,cr,2019_cl_dnn_cr_elephant_40_n02504013_6544.JPEG
vgg,2,740,NaN,elephant,elephant,cr,2020_cl_dnn_cr_elephant_40_n02504458_10661.JPEG
vgg,2,741,NaN,elephant,elephant,cr,2021_cl_dnn_cr_elephant_40_n02504013_4880.JPEG
vgg,2,742,NaN,elephant,elephant,cr,2022_cl_dnn_cr_elephant_40_n02504458_3464.JPEG
vgg,2,743,NaN,elephant,elephant,cr,2023_cl_dnn_cr_elephant_40_n02504013_1850.JPEG
vgg,2,744,NaN,elephant,elephant,cr,2024_cl_dnn_cr_elephant_40_n02504458_5600.JPEG
vgg,2,745,NaN,elephant,elephant,cr,2025_cl_dnn_cr_elephant_40_n02504013_8497.JPEG
vgg,2,746,NaN,elephant,elephant,cr,2026_cl_dnn_cr_elephant_40_n02504013_494.JPEG
vgg,2,747,NaN,elephant,elephant,cr,2027_cl_dnn_cr_elephant_40_n02504013_9361.JPEG
vgg,2,748,NaN,elephant,elephant,cr,2028_cl_dnn_cr_elephant_40_n02504013_784.JPEG
vgg,2,749,NaN,elephant,elephant,cr,2029_cl_dnn_cr_elephant_40_n02504013_5530.JPEG
vgg,2,750,NaN,elephant,elephant,cr,2030_cl_dnn_cr_elephant_40_n02504458_4963.JPEG
vgg,2,751,NaN,elephant,elephant,cr,2031_cl_dnn_cr_elephant_40_n02504013_6748.JPEG
vgg,2,752,NaN,elephant,elephant,cr,2032_cl_dnn_cr_elephant_40_n02504013_6823.JPEG
vgg,2,753,NaN,elephant,elephant,cr,2033_cl_dnn_cr_elephant_40_n02504013_13560.JPEG
vgg,2,754,NaN,elephant,elephant,cr,2034_cl_dnn_cr_elephant_40_n02504013_5505.JPEG
vgg,2,755,NaN,elephant,elephant,cr,2035_cl_dnn_cr_elephant_40_n02504458_13310.JPEG
vgg,2,756,NaN,elephant,elephant,cr,2036_cl_dnn_cr_elephant_40_n02504013_4997.JPEG
vgg,2,757,NaN,elephant,elephant,cr,2037_cl_dnn_cr_elephant_40_n02504458_11270.JPEG
vgg,2,758,NaN,elephant,elephant,cr,2038_cl_dnn_cr_elephant_40_n02504013_1574.JPEG
vgg,2,759,NaN,elephant,elephant,cr,2039_cl_dnn_cr_elephant_40_n02504013_44.JPEG
vgg,2,760,NaN,elephant,elephant,cr,2040_cl_dnn_cr_elephant_40_n02504458_1726.JPEG
vgg,2,761,NaN,bicycle,bicycle,cr,2041_cl_dnn_cr_bicycle_40_n03792782_67.JPEG
vgg,2,762,NaN,bicycle,bicycle,cr,2042_cl_dnn_cr_bicycle_40_n03792782_15016.JPEG
vgg,2,763,NaN,bicycle,bicycle,cr,2043_cl_dnn_cr_bicycle_40_n03792782_16433.JPEG
vgg,2,764,NaN,bicycle,bicycle,cr,2044_cl_dnn_cr_bicycle_40_n02835271_3710.JPEG
vgg,2,765,NaN,bicycle,bicycle,cr,2045_cl_dnn_cr_bicycle_40_n03792782_3333.JPEG
vgg,2,766,NaN,bicycle,bicycle,cr,2046_cl_dnn_cr_bicycle_40_n02835271_13542.JPEG
vgg,2,767,NaN,bicycle,bicycle,cr,2047_cl_dnn_cr_bicycle_40_n02835271_3570.JPEG
vgg,2,768,NaN,bicycle,bicycle,cr,2048_cl_dnn_cr_bicycle_40_n02835271_1536.JPEG
vgg,2,769,NaN,bicycle,bicycle,cr,2049_cl_dnn_cr_bicycle_40_n02835271_27610.JPEG
vgg,2,770,NaN,bicycle,bicycle,cr,2050_cl_dnn_cr_bicycle_40_n03792782_40466.JPEG
vgg,2,771,NaN,bicycle,bicycle,cr,2051_cl_dnn_cr_bicycle_40_n03792782_35183.JPEG
vgg,2,772,NaN,bicycle,bicycle,cr,2052_cl_dnn_cr_bicycle_40_n02835271_9440.JPEG
vgg,2,773,NaN,bicycle,bicycle,cr,2053_cl_dnn_cr_bicycle_40_n03792782_3552.JPEG
vgg,2,774,NaN,bicycle,bicycle,cr,2054_cl_dnn_cr_bicycle_40_n03792782_15679.JPEG
vgg,2,775,NaN,bicycle,bicycle,cr,2055_cl_dnn_cr_bicycle_40_n03792782_50737.JPEG
vgg,2,776,NaN,bicycle,bicycle,cr,2056_cl_dnn_cr_bicycle_40_n02835271_12477.JPEG
vgg,2,777,NaN,bicycle,bicycle,cr,2057_cl_dnn_cr_bicycle_40_n02835271_11870.JPEG
vgg,2,778,NaN,bicycle,bicycle,cr,2058_cl_dnn_cr_bicycle_40_n02835271_14276.JPEG
vgg,2,779,NaN,bicycle,bicycle,cr,2059_cl_dnn_cr_bicycle_40_n03792782_25191.JPEG
vgg,2,780,NaN,bicycle,bicycle,cr,2060_cl_dnn_cr_bicycle_40_n02835271_4937.JPEG
vgg,2,781,NaN,bicycle,bicycle,cr,2061_cl_dnn_cr_bicycle_40_n03792782_5517.JPEG
vgg,2,782,NaN,bicycle,bicycle,cr,2062_cl_dnn_cr_bicycle_40_n03792782_49510.JPEG
vgg,2,783,NaN,bicycle,bicycle,cr,2063_cl_dnn_cr_bicycle_40_n02835271_323.JPEG
vgg,2,784,NaN,bicycle,bicycle,cr,2064_cl_dnn_cr_bicycle_40_n02835271_14486.JPEG
vgg,2,785,NaN,bicycle,bicycle,cr,2065_cl_dnn_cr_bicycle_40_n03792782_16837.JPEG
vgg,2,786,NaN,bicycle,bicycle,cr,2066_cl_dnn_cr_bicycle_40_n02835271_8468.JPEG
vgg,2,787,NaN,bicycle,bicycle,cr,2067_cl_dnn_cr_bicycle_40_n03792782_15282.JPEG
vgg,2,788,NaN,bicycle,bicycle,cr,2068_cl_dnn_cr_bicycle_40_n02835271_14235.JPEG
vgg,2,789,NaN,bicycle,bicycle,cr,2069_cl_dnn_cr_bicycle_40_n03792782_3299.JPEG
vgg,2,790,NaN,bicycle,bicycle,cr,2070_cl_dnn_cr_bicycle_40_n03792782_53662.JPEG
vgg,2,791,NaN,bicycle,bicycle,cr,2071_cl_dnn_cr_bicycle_40_n03792782_2327.JPEG
vgg,2,792,NaN,bicycle,bicycle,cr,2072_cl_dnn_cr_bicycle_40_n02835271_20714.JPEG
vgg,2,793,NaN,bicycle,bicycle,cr,2073_cl_dnn_cr_bicycle_40_n02835271_5189.JPEG
vgg,2,794,NaN,bicycle,bicycle,cr,2074_cl_dnn_cr_bicycle_40_n03792782_8139.JPEG
vgg,2,795,NaN,bicycle,bicycle,cr,2075_cl_dnn_cr_bicycle_40_n03792782_13541.JPEG
vgg,2,796,NaN,bicycle,bicycle,cr,2076_cl_dnn_cr_bicycle_40_n02835271_14575.JPEG
vgg,2,797,NaN,bicycle,bicycle,cr,2077_cl_dnn_cr_bicycle_40_n02835271_8832.JPEG
vgg,2,798,NaN,bicycle,bicycle,cr,2078_cl_dnn_cr_bicycle_40_n03792782_22692.JPEG
vgg,2,799,NaN,bicycle,bicycle,cr,2079_cl_dnn_cr_bicycle_40_n03792782_4472.JPEG
vgg,2,800,NaN,bicycle,bicycle,cr,2080_cl_dnn_cr_bicycle_40_n03792782_8046.JPEG
vgg,2,801,NaN,airplane,airplane,cr,2081_cl_dnn_cr_airplane_40_n02690373_1213.JPEG
vgg,2,802,NaN,airplane,airplane,cr,2082_cl_dnn_cr_airplane_40_n02690373_10397.JPEG
vgg,2,803,NaN,airplane,airplane,cr,2083_cl_dnn_cr_airplane_40_n02690373_6614.JPEG
vgg,2,804,NaN,airplane,airplane,cr,2084_cl_dnn_cr_airplane_40_n02690373_6789.JPEG
vgg,2,805,NaN,airplane,airplane,cr,2085_cl_dnn_cr_airplane_40_n02690373_3840.JPEG
vgg,2,806,NaN,airplane,airplane,cr,2086_cl_dnn_cr_airplane_40_n02690373_6144.JPEG
vgg,2,807,NaN,airplane,airplane,cr,2087_cl_dnn_cr_airplane_40_n02690373_13609.JPEG
vgg,2,808,NaN,airplane,airplane,cr,2088_cl_dnn_cr_airplane_40_n02690373_19104.JPEG
vgg,2,809,NaN,airplane,airplane,cr,2089_cl_dnn_cr_airplane_40_n02690373_3440.JPEG
vgg,2,810,NaN,airplane,airplane,cr,2090_cl_dnn_cr_airplane_40_n02690373_5748.JPEG
vgg,2,811,NaN,airplane,airplane,cr,2091_cl_dnn_cr_airplane_40_n02690373_2010.JPEG
vgg,2,812,NaN,airplane,airplane,cr,2092_cl_dnn_cr_airplane_40_n02690373_9720.JPEG
vgg,2,813,NaN,airplane,airplane,cr,2093_cl_dnn_cr_airplane_40_n02690373_6602.JPEG
vgg,2,814,NaN,airplane,airplane,cr,2094_cl_dnn_cr_airplane_40_n02690373_2676.JPEG
vgg,2,815,NaN,airplane,airplane,cr,2095_cl_dnn_cr_airplane_40_n02690373_4188.JPEG
vgg,2,816,NaN,airplane,airplane,cr,2096_cl_dnn_cr_airplane_40_n02690373_9535.JPEG
vgg,2,817,NaN,airplane,airplane,cr,2097_cl_dnn_cr_airplane_40_n02690373_8883.JPEG
vgg,2,818,NaN,airplane,airplane,cr,2098_cl_dnn_cr_airplane_40_n02690373_283.JPEG
vgg,2,819,NaN,airplane,airplane,cr,2099_cl_dnn_cr_airplane_40_n02690373_389.JPEG
vgg,2,820,NaN,airplane,airplane,cr,2100_cl_dnn_cr_airplane_40_n02690373_5055.JPEG
vgg,2,821,NaN,airplane,airplane,cr,2101_cl_dnn_cr_airplane_40_n02690373_4851.JPEG
vgg,2,822,NaN,airplane,airplane,cr,2102_cl_dnn_cr_airplane_40_n02690373_10232.JPEG
vgg,2,823,NaN,airplane,airplane,cr,2103_cl_dnn_cr_airplane_40_n02690373_6468.JPEG
vgg,2,824,NaN,airplane,airplane,cr,2104_cl_dnn_cr_airplane_40_n02690373_9328.JPEG
vgg,2,825,NaN,airplane,airplane,cr,2105_cl_dnn_cr_airplane_40_n02690373_6212.JPEG
vgg,2,826,NaN,airplane,airplane,cr,2106_cl_dnn_cr_airplane_40_n02690373_6665.JPEG
vgg,2,827,NaN,airplane,airplane,cr,2107_cl_dnn_cr_airplane_40_n02690373_8789.JPEG
vgg,2,828,NaN,airplane,airplane,cr,2108_cl_dnn_cr_airplane_40_n02690373_10176.JPEG
vgg,2,829,NaN,airplane,airplane,cr,2109_cl_dnn_cr_airplane_40_n02690373_5266.JPEG
vgg,2,830,NaN,airplane,airplane,cr,2110_cl_dnn_cr_airplane_40_n02690373_5524.JPEG
vgg,2,831,NaN,airplane,airplane,cr,2111_cl_dnn_cr_airplane_40_n02690373_1644.JPEG
vgg,2,832,NaN,airplane,airplane,cr,2112_cl_dnn_cr_airplane_40_n02690373_7375.JPEG
vgg,2,833,NaN,airplane,airplane,cr,2113_cl_dnn_cr_airplane_40_n02690373_170.JPEG
vgg,2,834,NaN,airplane,airplane,cr,2114_cl_dnn_cr_airplane_40_n02690373_1325.JPEG
vgg,2,835,NaN,airplane,airplane,cr,2115_cl_dnn_cr_airplane_40_n02690373_3151.JPEG
vgg,2,836,NaN,airplane,airplane,cr,2116_cl_dnn_cr_airplane_40_n02690373_2632.JPEG
vgg,2,837,NaN,airplane,airplane,cr,2117_cl_dnn_cr_airplane_40_n02690373_2837.JPEG
vgg,2,838,NaN,airplane,airplane,cr,2118_cl_dnn_cr_airplane_40_n02690373_5729.JPEG
vgg,2,839,NaN,airplane,airplane,cr,2119_cl_dnn_cr_airplane_40_n02690373_4079.JPEG
vgg,2,840,NaN,airplane,airplane,cr,2120_cl_dnn_cr_airplane_40_n02690373_15411.JPEG
vgg,2,841,NaN,clock,clock,cr,2121_cl_dnn_cr_clock_40_n03196217_6891.JPEG
vgg,2,842,NaN,clock,clock,cr,2122_cl_dnn_cr_clock_40_n03196217_194.JPEG
vgg,2,843,NaN,clock,clock,cr,2123_cl_dnn_cr_clock_40_n02708093_2857.JPEG
vgg,2,844,NaN,clock,clock,cr,2124_cl_dnn_cr_clock_40_n03196217_4537.JPEG
vgg,2,845,NaN,clock,clock,cr,2125_cl_dnn_cr_clock_40_n02708093_6936.JPEG
vgg,2,846,NaN,clock,clock,cr,2126_cl_dnn_cr_clock_40_n04548280_2570.JPEG
vgg,2,847,NaN,clock,clock,cr,2127_cl_dnn_cr_clock_40_n03196217_11252.JPEG
vgg,2,848,NaN,oven,clock,cr,2128_cl_dnn_cr_clock_40_n04548280_8051.JPEG
vgg,2,849,NaN,clock,clock,cr,2129_cl_dnn_cr_clock_40_n02708093_2840.JPEG
vgg,2,850,NaN,clock,clock,cr,2130_cl_dnn_cr_clock_40_n04548280_2411.JPEG
vgg,2,851,NaN,clock,clock,cr,2131_cl_dnn_cr_clock_40_n03196217_6004.JPEG
vgg,2,852,NaN,clock,clock,cr,2132_cl_dnn_cr_clock_40_n04548280_116.JPEG
vgg,2,853,NaN,clock,clock,cr,2133_cl_dnn_cr_clock_40_n03196217_5222.JPEG
vgg,2,854,NaN,keyboard,clock,cr,2134_cl_dnn_cr_clock_40_n03196217_5149.JPEG
vgg,2,855,NaN,clock,clock,cr,2135_cl_dnn_cr_clock_40_n04548280_23.JPEG
vgg,2,856,NaN,clock,clock,cr,2136_cl_dnn_cr_clock_40_n03196217_8282.JPEG
vgg,2,857,NaN,clock,clock,cr,2137_cl_dnn_cr_clock_40_n02708093_821.JPEG
vgg,2,858,NaN,clock,clock,cr,2138_cl_dnn_cr_clock_40_n02708093_632.JPEG
vgg,2,859,NaN,clock,clock,cr,2139_cl_dnn_cr_clock_40_n02708093_3555.JPEG
vgg,2,860,NaN,clock,clock,cr,2140_cl_dnn_cr_clock_40_n02708093_601.JPEG
vgg,2,861,NaN,clock,clock,cr,2141_cl_dnn_cr_clock_40_n04548280_4397.JPEG
vgg,2,862,NaN,clock,clock,cr,2142_cl_dnn_cr_clock_40_n02708093_5429.JPEG
vgg,2,863,NaN,clock,clock,cr,2143_cl_dnn_cr_clock_40_n04548280_10459.JPEG
vgg,2,864,NaN,clock,clock,cr,2144_cl_dnn_cr_clock_40_n04548280_7436.JPEG
vgg,2,865,NaN,clock,clock,cr,2145_cl_dnn_cr_clock_40_n02708093_7809.JPEG
vgg,2,866,NaN,bottle,clock,cr,2146_cl_dnn_cr_clock_40_n02708093_1291.JPEG
vgg,2,867,NaN,clock,clock,cr,2147_cl_dnn_cr_clock_40_n04548280_3994.JPEG
vgg,2,868,NaN,clock,clock,cr,2148_cl_dnn_cr_clock_40_n04548280_2091.JPEG
vgg,2,869,NaN,knife,clock,cr,2149_cl_dnn_cr_clock_40_n02708093_1344.JPEG
vgg,2,870,NaN,clock,clock,cr,2150_cl_dnn_cr_clock_40_n03196217_5934.JPEG
vgg,2,871,NaN,clock,clock,cr,2151_cl_dnn_cr_clock_40_n03196217_911.JPEG
vgg,2,872,NaN,clock,clock,cr,2152_cl_dnn_cr_clock_40_n04548280_1036.JPEG
vgg,2,873,NaN,clock,clock,cr,2153_cl_dnn_cr_clock_40_n04548280_4907.JPEG
vgg,2,874,NaN,clock,clock,cr,2154_cl_dnn_cr_clock_40_n04548280_8170.JPEG
vgg,2,875,NaN,clock,clock,cr,2155_cl_dnn_cr_clock_40_n04548280_2522.JPEG
vgg,2,876,NaN,clock,clock,cr,2156_cl_dnn_cr_clock_40_n03196217_1109.JPEG
vgg,2,877,NaN,clock,clock,cr,2157_cl_dnn_cr_clock_40_n03196217_4491.JPEG
vgg,2,878,NaN,clock,clock,cr,2158_cl_dnn_cr_clock_40_n04548280_2687.JPEG
vgg,2,879,NaN,clock,clock,cr,2159_cl_dnn_cr_clock_40_n02708093_2197.JPEG
vgg,2,880,NaN,clock,clock,cr,2160_cl_dnn_cr_clock_40_n04548280_5380.JPEG
vgg,2,881,NaN,oven,oven,cr,2161_cl_dnn_cr_oven_40_n04111531_92.JPEG
vgg,2,882,NaN,oven,oven,cr,2162_cl_dnn_cr_oven_40_n04111531_16583.JPEG
vgg,2,883,NaN,oven,oven,cr,2163_cl_dnn_cr_oven_40_n04111531_11749.JPEG
vgg,2,884,NaN,oven,oven,cr,2164_cl_dnn_cr_oven_40_n04111531_1674.JPEG
vgg,2,885,NaN,oven,oven,cr,2165_cl_dnn_cr_oven_40_n04111531_797.JPEG
vgg,2,886,NaN,oven,oven,cr,2166_cl_dnn_cr_oven_40_n04111531_1305.JPEG
vgg,2,887,NaN,oven,oven,cr,2167_cl_dnn_cr_oven_40_n04111531_8117.JPEG
vgg,2,888,NaN,oven,oven,cr,2168_cl_dnn_cr_oven_40_n04111531_538.JPEG
vgg,2,889,NaN,bottle,oven,cr,2169_cl_dnn_cr_oven_40_n04111531_5519.JPEG
vgg,2,890,NaN,oven,oven,cr,2170_cl_dnn_cr_oven_40_n04111531_16708.JPEG
vgg,2,891,NaN,oven,oven,cr,2171_cl_dnn_cr_oven_40_n04111531_12408.JPEG
vgg,2,892,NaN,oven,oven,cr,2172_cl_dnn_cr_oven_40_n04111531_3580.JPEG
vgg,2,893,NaN,oven,oven,cr,2173_cl_dnn_cr_oven_40_n04111531_3477.JPEG
vgg,2,894,NaN,oven,oven,cr,2174_cl_dnn_cr_oven_40_n04111531_7741.JPEG
vgg,2,895,NaN,oven,oven,cr,2175_cl_dnn_cr_oven_40_n04111531_22120.JPEG
vgg,2,896,NaN,oven,oven,cr,2176_cl_dnn_cr_oven_40_n04111531_17923.JPEG
vgg,2,897,NaN,oven,oven,cr,2177_cl_dnn_cr_oven_40_n04111531_5904.JPEG
vgg,2,898,NaN,oven,oven,cr,2178_cl_dnn_cr_oven_40_n04111531_22263.JPEG
vgg,2,899,NaN,oven,oven,cr,2179_cl_dnn_cr_oven_40_n04111531_594.JPEG
vgg,2,900,NaN,oven,oven,cr,2180_cl_dnn_cr_oven_40_n04111531_15912.JPEG
vgg,2,901,NaN,oven,oven,cr,2181_cl_dnn_cr_oven_40_n04111531_3076.JPEG
vgg,2,902,NaN,oven,oven,cr,2182_cl_dnn_cr_oven_40_n04111531_22715.JPEG
vgg,2,903,NaN,oven,oven,cr,2183_cl_dnn_cr_oven_40_n04111531_804.JPEG
vgg,2,904,NaN,oven,oven,cr,2184_cl_dnn_cr_oven_40_n04111531_1562.JPEG
vgg,2,905,NaN,oven,oven,cr,2185_cl_dnn_cr_oven_40_n04111531_4012.JPEG
vgg,2,906,NaN,oven,oven,cr,2186_cl_dnn_cr_oven_40_n04111531_19104.JPEG
vgg,2,907,NaN,oven,oven,cr,2187_cl_dnn_cr_oven_40_n04111531_1165.JPEG
vgg,2,908,NaN,oven,oven,cr,2188_cl_dnn_cr_oven_40_n04111531_769.JPEG
vgg,2,909,NaN,oven,oven,cr,2189_cl_dnn_cr_oven_40_n04111531_16270.JPEG
vgg,2,910,NaN,oven,oven,cr,2190_cl_dnn_cr_oven_40_n04111531_9962.JPEG
vgg,2,911,NaN,oven,oven,cr,2191_cl_dnn_cr_oven_40_n04111531_3575.JPEG
vgg,2,912,NaN,oven,oven,cr,2192_cl_dnn_cr_oven_40_n04111531_46651.JPEG
vgg,2,913,NaN,oven,oven,cr,2193_cl_dnn_cr_oven_40_n04111531_11794.JPEG
vgg,2,914,NaN,oven,oven,cr,2194_cl_dnn_cr_oven_40_n04111531_7076.JPEG
vgg,2,915,NaN,oven,oven,cr,2195_cl_dnn_cr_oven_40_n04111531_5643.JPEG
vgg,2,916,NaN,oven,oven,cr,2196_cl_dnn_cr_oven_40_n04111531_5578.JPEG
vgg,2,917,NaN,oven,oven,cr,2197_cl_dnn_cr_oven_40_n04111531_21869.JPEG
vgg,2,918,NaN,oven,oven,cr,2198_cl_dnn_cr_oven_40_n04111531_19274.JPEG
vgg,2,919,NaN,oven,oven,cr,2199_cl_dnn_cr_oven_40_n04111531_4879.JPEG
vgg,2,920,NaN,oven,oven,cr,2200_cl_dnn_cr_oven_40_n04111531_11589.JPEG
vgg,2,921,NaN,chair,chair,cr,2201_cl_dnn_cr_chair_40_n04099969_5000.JPEG
vgg,2,922,NaN,chair,chair,cr,2202_cl_dnn_cr_chair_40_n02791124_7309.JPEG
vgg,2,923,NaN,chair,chair,cr,2203_cl_dnn_cr_chair_40_n04099969_7153.JPEG
vgg,2,924,NaN,chair,chair,cr,2204_cl_dnn_cr_chair_40_n04099969_43.JPEG
vgg,2,925,NaN,chair,chair,cr,2205_cl_dnn_cr_chair_40_n04429376_5284.JPEG
vgg,2,926,NaN,chair,chair,cr,2206_cl_dnn_cr_chair_40_n02791124_4728.JPEG
vgg,2,927,NaN,chair,chair,cr,2207_cl_dnn_cr_chair_40_n04099969_2713.JPEG
vgg,2,928,NaN,chair,chair,cr,2208_cl_dnn_cr_chair_40_n02791124_8002.JPEG
vgg,2,929,NaN,chair,chair,cr,2209_cl_dnn_cr_chair_40_n04099969_8080.JPEG
vgg,2,930,NaN,chair,chair,cr,2210_cl_dnn_cr_chair_40_n02791124_4938.JPEG
vgg,2,931,NaN,chair,chair,cr,2211_cl_dnn_cr_chair_40_n02791124_943.JPEG
vgg,2,932,NaN,chair,chair,cr,2212_cl_dnn_cr_chair_40_n03376595_9268.JPEG
vgg,2,933,NaN,chair,chair,cr,2213_cl_dnn_cr_chair_40_n04099969_23387.JPEG
vgg,2,934,NaN,chair,chair,cr,2214_cl_dnn_cr_chair_40_n04099969_18135.JPEG
vgg,2,935,NaN,chair,chair,cr,2215_cl_dnn_cr_chair_40_n03376595_4123.JPEG
vgg,2,936,NaN,chair,chair,cr,2216_cl_dnn_cr_chair_40_n04099969_36602.JPEG
vgg,2,937,NaN,chair,chair,cr,2217_cl_dnn_cr_chair_40_n04099969_34351.JPEG
vgg,2,938,NaN,chair,chair,cr,2218_cl_dnn_cr_chair_40_n03376595_1994.JPEG
vgg,2,939,NaN,chair,chair,cr,2219_cl_dnn_cr_chair_40_n04099969_2101.JPEG
vgg,2,940,NaN,chair,chair,cr,2220_cl_dnn_cr_chair_40_n04429376_16952.JPEG
vgg,2,941,NaN,chair,chair,cr,2221_cl_dnn_cr_chair_40_n04099969_16512.JPEG
vgg,2,942,NaN,chair,chair,cr,2222_cl_dnn_cr_chair_40_n04099969_2799.JPEG
vgg,2,943,NaN,chair,chair,cr,2223_cl_dnn_cr_chair_40_n04429376_13452.JPEG
vgg,2,944,NaN,chair,chair,cr,2224_cl_dnn_cr_chair_40_n02791124_1548.JPEG
vgg,2,945,NaN,chair,chair,cr,2225_cl_dnn_cr_chair_40_n03376595_5227.JPEG
vgg,2,946,NaN,chair,chair,cr,2226_cl_dnn_cr_chair_40_n04099969_8360.JPEG
vgg,2,947,NaN,chair,chair,cr,2227_cl_dnn_cr_chair_40_n02791124_13901.JPEG
vgg,2,948,NaN,chair,chair,cr,2228_cl_dnn_cr_chair_40_n04099969_141.JPEG
vgg,2,949,NaN,chair,chair,cr,2229_cl_dnn_cr_chair_40_n04429376_14691.JPEG
vgg,2,950,NaN,chair,chair,cr,2230_cl_dnn_cr_chair_40_n02791124_2284.JPEG
vgg,2,951,NaN,chair,chair,cr,2231_cl_dnn_cr_chair_40_n03376595_11280.JPEG
vgg,2,952,NaN,chair,chair,cr,2232_cl_dnn_cr_chair_40_n03376595_7081.JPEG
vgg,2,953,NaN,chair,chair,cr,2233_cl_dnn_cr_chair_40_n02791124_2999.JPEG
vgg,2,954,NaN,chair,chair,cr,2234_cl_dnn_cr_chair_40_n02791124_143.JPEG
vgg,2,955,NaN,chair,chair,cr,2235_cl_dnn_cr_chair_40_n02791124_2085.JPEG
vgg,2,956,NaN,chair,chair,cr,2236_cl_dnn_cr_chair_40_n03376595_497.JPEG
vgg,2,957,NaN,truck,chair,cr,2237_cl_dnn_cr_chair_40_n04429376_619.JPEG
vgg,2,958,NaN,chair,chair,cr,2238_cl_dnn_cr_chair_40_n04099969_739.JPEG
vgg,2,959,NaN,chair,chair,cr,2239_cl_dnn_cr_chair_40_n04099969_25627.JPEG
vgg,2,960,NaN,chair,chair,cr,2240_cl_dnn_cr_chair_40_n02791124_17062.JPEG
vgg,2,961,NaN,bear,bear,cr,2241_cl_dnn_cr_bear_40_n02134084_33601.JPEG
vgg,2,962,NaN,bear,bear,cr,2242_cl_dnn_cr_bear_40_n02133161_3419.JPEG
vgg,2,963,NaN,bear,bear,cr,2243_cl_dnn_cr_bear_40_n02132136_11072.JPEG
vgg,2,964,NaN,bear,bear,cr,2244_cl_dnn_cr_bear_40_n02133161_6000.JPEG
vgg,2,965,NaN,bear,bear,cr,2245_cl_dnn_cr_bear_40_n02134418_16624.JPEG
vgg,2,966,NaN,bear,bear,cr,2246_cl_dnn_cr_bear_40_n02134418_1307.JPEG
vgg,2,967,NaN,bear,bear,cr,2247_cl_dnn_cr_bear_40_n02134084_749.JPEG
vgg,2,968,NaN,bear,bear,cr,2248_cl_dnn_cr_bear_40_n02133161_11816.JPEG
vgg,2,969,NaN,bear,bear,cr,2249_cl_dnn_cr_bear_40_n02134084_10517.JPEG
vgg,2,970,NaN,bear,bear,cr,2250_cl_dnn_cr_bear_40_n02134084_8065.JPEG
vgg,2,971,NaN,bear,bear,cr,2251_cl_dnn_cr_bear_40_n02134418_1295.JPEG
vgg,2,972,NaN,bear,bear,cr,2252_cl_dnn_cr_bear_40_n02132136_9922.JPEG
vgg,2,973,NaN,bear,bear,cr,2253_cl_dnn_cr_bear_40_n02133161_2430.JPEG
vgg,2,974,NaN,bear,bear,cr,2254_cl_dnn_cr_bear_40_n02132136_5537.JPEG
vgg,2,975,NaN,bear,bear,cr,2255_cl_dnn_cr_bear_40_n02134084_3306.JPEG
vgg,2,976,NaN,bear,bear,cr,2256_cl_dnn_cr_bear_40_n02133161_10684.JPEG
vgg,2,977,NaN,bear,bear,cr,2257_cl_dnn_cr_bear_40_n02134418_581.JPEG
vgg,2,978,NaN,bear,bear,cr,2258_cl_dnn_cr_bear_40_n02134084_431.JPEG
vgg,2,979,NaN,bear,bear,cr,2259_cl_dnn_cr_bear_40_n02132136_1183.JPEG
vgg,2,980,NaN,bear,bear,cr,2260_cl_dnn_cr_bear_40_n02134084_5849.JPEG
vgg,2,981,NaN,bear,bear,cr,2261_cl_dnn_cr_bear_40_n02134084_463.JPEG
vgg,2,982,NaN,bear,bear,cr,2262_cl_dnn_cr_bear_40_n02133161_5964.JPEG
vgg,2,983,NaN,bear,bear,cr,2263_cl_dnn_cr_bear_40_n02134418_1074.JPEG
vgg,2,984,NaN,bear,bear,cr,2264_cl_dnn_cr_bear_40_n02133161_3292.JPEG
vgg,2,985,NaN,bear,bear,cr,2265_cl_dnn_cr_bear_40_n02134084_10447.JPEG
vgg,2,986,NaN,bear,bear,cr,2266_cl_dnn_cr_bear_40_n02134418_11746.JPEG
vgg,2,987,NaN,bear,bear,cr,2267_cl_dnn_cr_bear_40_n02134418_2657.JPEG
vgg,2,988,NaN,bear,bear,cr,2268_cl_dnn_cr_bear_40_n02133161_13427.JPEG
vgg,2,989,NaN,bear,bear,cr,2269_cl_dnn_cr_bear_40_n02134418_10318.JPEG
vgg,2,990,NaN,bear,bear,cr,2270_cl_dnn_cr_bear_40_n02134418_5056.JPEG
vgg,2,991,NaN,bear,bear,cr,2271_cl_dnn_cr_bear_40_n02133161_49.JPEG
vgg,2,992,NaN,bear,bear,cr,2272_cl_dnn_cr_bear_40_n02134418_4987.JPEG
vgg,2,993,NaN,bear,bear,cr,2273_cl_dnn_cr_bear_40_n02132136_417.JPEG
vgg,2,994,NaN,bear,bear,cr,2274_cl_dnn_cr_bear_40_n02133161_4146.JPEG
vgg,2,995,NaN,bear,bear,cr,2275_cl_dnn_cr_bear_40_n02133161_12315.JPEG
vgg,2,996,NaN,bear,bear,cr,2276_cl_dnn_cr_bear_40_n02134418_3592.JPEG
vgg,2,997,NaN,bear,bear,cr,2277_cl_dnn_cr_bear_40_n02133161_1013.JPEG
vgg,2,998,NaN,bear,bear,cr,2278_cl_dnn_cr_bear_40_n02132136_538.JPEG
vgg,2,999,NaN,bear,bear,cr,2279_cl_dnn_cr_bear_40_n02134084_9326.JPEG
vgg,2,1000,NaN,bear,bear,cr,2280_cl_dnn_cr_bear_40_n02134418_3651.JPEG
vgg,2,1001,NaN,boat,boat,cr,2281_cl_dnn_cr_boat_40_n02951358_8446.JPEG
vgg,2,1002,NaN,boat,boat,cr,2282_cl_dnn_cr_boat_40_n03662601_28619.JPEG
vgg,2,1003,NaN,airplane,boat,cr,2283_cl_dnn_cr_boat_40_n03662601_18676.JPEG
vgg,2,1004,NaN,boat,boat,cr,2284_cl_dnn_cr_boat_40_n04612504_32093.JPEG
vgg,2,1005,NaN,boat,boat,cr,2285_cl_dnn_cr_boat_40_n02951358_13687.JPEG
vgg,2,1006,NaN,boat,boat,cr,2286_cl_dnn_cr_boat_40_n04612504_8948.JPEG
vgg,2,1007,NaN,boat,boat,cr,2287_cl_dnn_cr_boat_40_n02951358_10971.JPEG
vgg,2,1008,NaN,boat,boat,cr,2288_cl_dnn_cr_boat_40_n02951358_20114.JPEG
vgg,2,1009,NaN,boat,boat,cr,2289_cl_dnn_cr_boat_40_n04273569_14987.JPEG
vgg,2,1010,NaN,boat,boat,cr,2290_cl_dnn_cr_boat_40_n03344393_4592.JPEG
vgg,2,1011,NaN,boat,boat,cr,2291_cl_dnn_cr_boat_40_n03344393_4019.JPEG
vgg,2,1012,NaN,boat,boat,cr,2292_cl_dnn_cr_boat_40_n02951358_11266.JPEG
vgg,2,1013,NaN,boat,boat,cr,2293_cl_dnn_cr_boat_40_n02951358_8669.JPEG
vgg,2,1014,NaN,boat,boat,cr,2294_cl_dnn_cr_boat_40_n03344393_5281.JPEG
vgg,2,1015,NaN,boat,boat,cr,2295_cl_dnn_cr_boat_40_n04612504_3179.JPEG
vgg,2,1016,NaN,boat,boat,cr,2296_cl_dnn_cr_boat_40_n03662601_22558.JPEG
vgg,2,1017,NaN,boat,boat,cr,2297_cl_dnn_cr_boat_40_n04612504_6957.JPEG
vgg,2,1018,NaN,boat,boat,cr,2298_cl_dnn_cr_boat_40_n04612504_9175.JPEG
vgg,2,1019,NaN,boat,boat,cr,2299_cl_dnn_cr_boat_40_n04612504_22090.JPEG
vgg,2,1020,NaN,boat,boat,cr,2300_cl_dnn_cr_boat_40_n02951358_31148.JPEG
vgg,2,1021,NaN,boat,boat,cr,2301_cl_dnn_cr_boat_40_n04273569_16861.JPEG
vgg,2,1022,NaN,boat,boat,cr,2302_cl_dnn_cr_boat_40_n04273569_24300.JPEG
vgg,2,1023,NaN,boat,boat,cr,2303_cl_dnn_cr_boat_40_n03344393_6585.JPEG
vgg,2,1024,NaN,boat,boat,cr,2304_cl_dnn_cr_boat_40_n04273569_11057.JPEG
vgg,2,1025,NaN,boat,boat,cr,2305_cl_dnn_cr_boat_40_n02951358_11810.JPEG
vgg,2,1026,NaN,boat,boat,cr,2306_cl_dnn_cr_boat_40_n02951358_13037.JPEG
vgg,2,1027,NaN,boat,boat,cr,2307_cl_dnn_cr_boat_40_n02951358_5162.JPEG
vgg,2,1028,NaN,boat,boat,cr,2308_cl_dnn_cr_boat_40_n03344393_3298.JPEG
vgg,2,1029,NaN,boat,boat,cr,2309_cl_dnn_cr_boat_40_n04612504_2153.JPEG
vgg,2,1030,NaN,boat,boat,cr,2310_cl_dnn_cr_boat_40_n03662601_32983.JPEG
vgg,2,1031,NaN,boat,boat,cr,2311_cl_dnn_cr_boat_40_n03344393_6983.JPEG
vgg,2,1032,NaN,boat,boat,cr,2312_cl_dnn_cr_boat_40_n03662601_9178.JPEG
vgg,2,1033,NaN,boat,boat,cr,2313_cl_dnn_cr_boat_40_n02951358_30773.JPEG
vgg,2,1034,NaN,boat,boat,cr,2314_cl_dnn_cr_boat_40_n04273569_13776.JPEG
vgg,2,1035,NaN,boat,boat,cr,2315_cl_dnn_cr_boat_40_n04612504_3414.JPEG
vgg,2,1036,NaN,boat,boat,cr,2316_cl_dnn_cr_boat_40_n02951358_30622.JPEG
vgg,2,1037,NaN,boat,boat,cr,2317_cl_dnn_cr_boat_40_n02951358_13352.JPEG
vgg,2,1038,NaN,boat,boat,cr,2318_cl_dnn_cr_boat_40_n02951358_3742.JPEG
vgg,2,1039,NaN,boat,boat,cr,2319_cl_dnn_cr_boat_40_n02951358_7089.JPEG
vgg,2,1040,NaN,boat,boat,cr,2320_cl_dnn_cr_boat_40_n03662601_17539.JPEG
vgg,2,1041,NaN,cat,cat,cr,2321_cl_dnn_cr_cat_40_n02124075_11787.JPEG
vgg,2,1042,NaN,cat,cat,cr,2322_cl_dnn_cr_cat_40_n02123045_2742.JPEG
vgg,2,1043,NaN,cat,cat,cr,2323_cl_dnn_cr_cat_40_n02125311_16635.JPEG
vgg,2,1044,NaN,cat,cat,cr,2324_cl_dnn_cr_cat_40_n02125311_16701.JPEG
vgg,2,1045,NaN,cat,cat,cr,2325_cl_dnn_cr_cat_40_n02123394_623.JPEG
vgg,2,1046,NaN,cat,cat,cr,2326_cl_dnn_cr_cat_40_n02123159_4663.JPEG
vgg,2,1047,NaN,cat,cat,cr,2327_cl_dnn_cr_cat_40_n02125311_34378.JPEG
vgg,2,1048,NaN,cat,cat,cr,2328_cl_dnn_cr_cat_40_n02125311_13383.JPEG
vgg,2,1049,NaN,cat,cat,cr,2329_cl_dnn_cr_cat_40_n02123394_8271.JPEG
vgg,2,1050,NaN,cat,cat,cr,2330_cl_dnn_cr_cat_40_n02123045_21703.JPEG
vgg,2,1051,NaN,cat,cat,cr,2331_cl_dnn_cr_cat_40_n02125311_23426.JPEG
vgg,2,1052,NaN,cat,cat,cr,2332_cl_dnn_cr_cat_40_n02124075_700.JPEG
vgg,2,1053,NaN,cat,cat,cr,2333_cl_dnn_cr_cat_40_n02125311_28191.JPEG
vgg,2,1054,NaN,cat,cat,cr,2334_cl_dnn_cr_cat_40_n02123159_6560.JPEG
vgg,2,1055,NaN,cat,cat,cr,2335_cl_dnn_cr_cat_40_n02123394_3898.JPEG
vgg,2,1056,NaN,cat,cat,cr,2336_cl_dnn_cr_cat_40_n02123045_6044.JPEG
vgg,2,1057,NaN,cat,cat,cr,2337_cl_dnn_cr_cat_40_n02123597_8523.JPEG
vgg,2,1058,NaN,cat,cat,cr,2338_cl_dnn_cr_cat_40_n02123045_9947.JPEG
vgg,2,1059,NaN,cat,cat,cr,2339_cl_dnn_cr_cat_40_n02123597_13616.JPEG
vgg,2,1060,NaN,cat,cat,cr,2340_cl_dnn_cr_cat_40_n02125311_8376.JPEG
vgg,2,1061,NaN,cat,cat,cr,2341_cl_dnn_cr_cat_40_n02123045_6447.JPEG
vgg,2,1062,NaN,cat,cat,cr,2342_cl_dnn_cr_cat_40_n02123597_6330.JPEG
vgg,2,1063,NaN,cat,cat,cr,2343_cl_dnn_cr_cat_40_n02123159_151.JPEG
vgg,2,1064,NaN,cat,cat,cr,2344_cl_dnn_cr_cat_40_n02123394_8242.JPEG
vgg,2,1065,NaN,cat,cat,cr,2345_cl_dnn_cr_cat_40_n02123159_2077.JPEG
vgg,2,1066,NaN,cat,cat,cr,2346_cl_dnn_cr_cat_40_n02123159_2317.JPEG
vgg,2,1067,NaN,cat,cat,cr,2347_cl_dnn_cr_cat_40_n02125311_25621.JPEG
vgg,2,1068,NaN,cat,cat,cr,2348_cl_dnn_cr_cat_40_n02125311_30598.JPEG
vgg,2,1069,NaN,cat,cat,cr,2349_cl_dnn_cr_cat_40_n02123394_5622.JPEG
vgg,2,1070,NaN,cat,cat,cr,2350_cl_dnn_cr_cat_40_n02125311_15091.JPEG
vgg,2,1071,NaN,cat,cat,cr,2351_cl_dnn_cr_cat_40_n02125311_9107.JPEG
vgg,2,1072,NaN,cat,cat,cr,2352_cl_dnn_cr_cat_40_n02123159_389.JPEG
vgg,2,1073,NaN,cat,cat,cr,2353_cl_dnn_cr_cat_40_n02123159_2872.JPEG
vgg,2,1074,NaN,cat,cat,cr,2354_cl_dnn_cr_cat_40_n02125311_40332.JPEG
vgg,2,1075,NaN,cat,cat,cr,2355_cl_dnn_cr_cat_40_n02124075_7898.JPEG
vgg,2,1076,NaN,cat,cat,cr,2356_cl_dnn_cr_cat_40_n02125311_43726.JPEG
vgg,2,1077,NaN,cat,cat,cr,2357_cl_dnn_cr_cat_40_n02123159_4119.JPEG
vgg,2,1078,NaN,cat,cat,cr,2358_cl_dnn_cr_cat_40_n02123394_1931.JPEG
vgg,2,1079,NaN,cat,cat,cr,2359_cl_dnn_cr_cat_40_n02123597_10529.JPEG
vgg,2,1080,NaN,cat,cat,cr,2360_cl_dnn_cr_cat_40_n02123159_4023.JPEG
vgg,2,1081,NaN,bottle,bottle,cr,2361_cl_dnn_cr_bottle_40_n03937543_1425.JPEG
vgg,2,1082,NaN,bottle,bottle,cr,2362_cl_dnn_cr_bottle_40_n04560804_15355.JPEG
vgg,2,1083,NaN,bottle,bottle,cr,2363_cl_dnn_cr_bottle_40_n04557648_3350.JPEG
vgg,2,1084,NaN,bottle,bottle,cr,2364_cl_dnn_cr_bottle_40_n04560804_1089.JPEG
vgg,2,1085,NaN,bottle,bottle,cr,2365_cl_dnn_cr_bottle_40_n02823428_7337.JPEG
vgg,2,1086,NaN,bottle,bottle,cr,2366_cl_dnn_cr_bottle_40_n04557648_8759.JPEG
vgg,2,1087,NaN,bottle,bottle,cr,2367_cl_dnn_cr_bottle_40_n04557648_11310.JPEG
vgg,2,1088,NaN,bottle,bottle,cr,2368_cl_dnn_cr_bottle_40_n04591713_4641.JPEG
vgg,2,1089,NaN,bottle,bottle,cr,2369_cl_dnn_cr_bottle_40_n03937543_2655.JPEG
vgg,2,1090,NaN,bottle,bottle,cr,2370_cl_dnn_cr_bottle_40_n04557648_1133.JPEG
vgg,2,1091,NaN,bottle,bottle,cr,2371_cl_dnn_cr_bottle_40_n04579145_6509.JPEG
vgg,2,1092,NaN,bottle,bottle,cr,2372_cl_dnn_cr_bottle_40_n04557648_2439.JPEG
vgg,2,1093,NaN,bottle,bottle,cr,2373_cl_dnn_cr_bottle_40_n04591713_13283.JPEG
vgg,2,1094,NaN,bottle,bottle,cr,2374_cl_dnn_cr_bottle_40_n04579145_4909.JPEG
vgg,2,1095,NaN,bottle,bottle,cr,2375_cl_dnn_cr_bottle_40_n04560804_1356.JPEG
vgg,2,1096,NaN,bottle,bottle,cr,2376_cl_dnn_cr_bottle_40_n04591713_940.JPEG
vgg,2,1097,NaN,bottle,bottle,cr,2377_cl_dnn_cr_bottle_40_n04591713_6655.JPEG
vgg,2,1098,NaN,bottle,bottle,cr,2378_cl_dnn_cr_bottle_40_n02823428_11346.JPEG
vgg,2,1099,NaN,bottle,bottle,cr,2379_cl_dnn_cr_bottle_40_n03937543_2486.JPEG
vgg,2,1100,NaN,bottle,bottle,cr,2380_cl_dnn_cr_bottle_40_n04560804_1557.JPEG
vgg,2,1101,NaN,bottle,bottle,cr,2381_cl_dnn_cr_bottle_40_n04557648_4421.JPEG
vgg,2,1102,NaN,bottle,bottle,cr,2382_cl_dnn_cr_bottle_40_n03937543_5323.JPEG
vgg,2,1103,NaN,bottle,bottle,cr,2383_cl_dnn_cr_bottle_40_n02823428_14790.JPEG
vgg,2,1104,NaN,bottle,bottle,cr,2384_cl_dnn_cr_bottle_40_n03983396_76.JPEG
vgg,2,1105,NaN,bottle,bottle,cr,2385_cl_dnn_cr_bottle_40_n04557648_11696.JPEG
vgg,2,1106,NaN,bottle,bottle,cr,2386_cl_dnn_cr_bottle_40_n03937543_4703.JPEG
vgg,2,1107,NaN,bottle,bottle,cr,2387_cl_dnn_cr_bottle_40_n02823428_2494.JPEG
vgg,2,1108,NaN,bottle,bottle,cr,2388_cl_dnn_cr_bottle_40_n04579145_4257.JPEG
vgg,2,1109,NaN,truck,bottle,cr,2389_cl_dnn_cr_bottle_40_n04560804_15562.JPEG
vgg,2,1110,NaN,bottle,bottle,cr,2390_cl_dnn_cr_bottle_40_n02823428_5264.JPEG
vgg,2,1111,NaN,bottle,bottle,cr,2391_cl_dnn_cr_bottle_40_n04591713_5500.JPEG
vgg,2,1112,NaN,bottle,bottle,cr,2392_cl_dnn_cr_bottle_40_n04560804_2634.JPEG
vgg,2,1113,NaN,bottle,bottle,cr,2393_cl_dnn_cr_bottle_40_n04557648_11594.JPEG
vgg,2,1114,NaN,bottle,bottle,cr,2394_cl_dnn_cr_bottle_40_n03983396_356.JPEG
vgg,2,1115,NaN,bottle,bottle,cr,2395_cl_dnn_cr_bottle_40_n02823428_417.JPEG
vgg,2,1116,NaN,knife,bottle,cr,2396_cl_dnn_cr_bottle_40_n03937543_7493.JPEG
vgg,2,1117,NaN,bottle,bottle,cr,2397_cl_dnn_cr_bottle_40_n04591713_17170.JPEG
vgg,2,1118,NaN,bottle,bottle,cr,2398_cl_dnn_cr_bottle_40_n04557648_11012.JPEG
vgg,2,1119,NaN,bottle,bottle,cr,2399_cl_dnn_cr_bottle_40_n04557648_3541.JPEG
vgg,2,1120,NaN,bottle,bottle,cr,2400_cl_dnn_cr_bottle_40_n04560804_11350.JPEG
vgg,2,1121,NaN,chair,truck,cr,2401_cl_dnn_cr_truck_40_n03796401_7519.JPEG
vgg,2,1122,NaN,truck,truck,cr,2402_cl_dnn_cr_truck_40_n04467665_13.JPEG
vgg,2,1123,NaN,truck,truck,cr,2403_cl_dnn_cr_truck_40_n03417042_6241.JPEG
vgg,2,1124,NaN,truck,truck,cr,2404_cl_dnn_cr_truck_40_n03417042_2812.JPEG
vgg,2,1125,NaN,truck,truck,cr,2405_cl_dnn_cr_truck_40_n04467665_23247.JPEG
vgg,2,1126,NaN,truck,truck,cr,2406_cl_dnn_cr_truck_40_n03796401_27924.JPEG
vgg,2,1127,NaN,truck,truck,cr,2407_cl_dnn_cr_truck_40_n03796401_21198.JPEG
vgg,2,1128,NaN,truck,truck,cr,2408_cl_dnn_cr_truck_40_n03417042_11546.JPEG
vgg,2,1129,NaN,truck,truck,cr,2409_cl_dnn_cr_truck_40_n03417042_29083.JPEG
vgg,2,1130,NaN,truck,truck,cr,2410_cl_dnn_cr_truck_40_n03796401_1584.JPEG
vgg,2,1131,NaN,truck,truck,cr,2411_cl_dnn_cr_truck_40_n03417042_4645.JPEG
vgg,2,1132,NaN,truck,truck,cr,2412_cl_dnn_cr_truck_40_n03417042_3329.JPEG
vgg,2,1133,NaN,truck,truck,cr,2413_cl_dnn_cr_truck_40_n04467665_74008.JPEG
vgg,2,1134,NaN,truck,truck,cr,2414_cl_dnn_cr_truck_40_n03796401_3665.JPEG
vgg,2,1135,NaN,truck,truck,cr,2415_cl_dnn_cr_truck_40_n03417042_12002.JPEG
vgg,2,1136,NaN,truck,truck,cr,2416_cl_dnn_cr_truck_40_n04467665_21603.JPEG
vgg,2,1137,NaN,truck,truck,cr,2417_cl_dnn_cr_truck_40_n03417042_4218.JPEG
vgg,2,1138,NaN,truck,truck,cr,2418_cl_dnn_cr_truck_40_n03417042_24980.JPEG
vgg,2,1139,NaN,truck,truck,cr,2419_cl_dnn_cr_truck_40_n03796401_18240.JPEG
vgg,2,1140,NaN,truck,truck,cr,2420_cl_dnn_cr_truck_40_n03417042_3807.JPEG
vgg,2,1141,NaN,truck,truck,cr,2421_cl_dnn_cr_truck_40_n03796401_6902.JPEG
vgg,2,1142,NaN,truck,truck,cr,2422_cl_dnn_cr_truck_40_n04467665_50746.JPEG
vgg,2,1143,NaN,truck,truck,cr,2423_cl_dnn_cr_truck_40_n03417042_9327.JPEG
vgg,2,1144,NaN,truck,truck,cr,2424_cl_dnn_cr_truck_40_n04467665_45314.JPEG
vgg,2,1145,NaN,truck,truck,cr,2425_cl_dnn_cr_truck_40_n03417042_24856.JPEG
vgg,2,1146,NaN,truck,truck,cr,2426_cl_dnn_cr_truck_40_n03417042_8996.JPEG
vgg,2,1147,NaN,truck,truck,cr,2427_cl_dnn_cr_truck_40_n03417042_2060.JPEG
vgg,2,1148,NaN,truck,truck,cr,2428_cl_dnn_cr_truck_40_n03417042_18124.JPEG
vgg,2,1149,NaN,truck,truck,cr,2429_cl_dnn_cr_truck_40_n03796401_6596.JPEG
vgg,2,1150,NaN,truck,truck,cr,2430_cl_dnn_cr_truck_40_n03796401_27282.JPEG
vgg,2,1151,NaN,truck,truck,cr,2431_cl_dnn_cr_truck_40_n03796401_20641.JPEG
vgg,2,1152,NaN,truck,truck,cr,2432_cl_dnn_cr_truck_40_n04467665_65253.JPEG
vgg,2,1153,NaN,truck,truck,cr,2433_cl_dnn_cr_truck_40_n03417042_28261.JPEG
vgg,2,1154,NaN,truck,truck,cr,2434_cl_dnn_cr_truck_40_n03417042_10517.JPEG
vgg,2,1155,NaN,clock,truck,cr,2435_cl_dnn_cr_truck_40_n03417042_17142.JPEG
vgg,2,1156,NaN,truck,truck,cr,2436_cl_dnn_cr_truck_40_n03417042_5346.JPEG
vgg,2,1157,NaN,truck,truck,cr,2437_cl_dnn_cr_truck_40_n03417042_17233.JPEG
vgg,2,1158,NaN,truck,truck,cr,2438_cl_dnn_cr_truck_40_n03417042_29231.JPEG
vgg,2,1159,NaN,truck,truck,cr,2439_cl_dnn_cr_truck_40_n03417042_20123.JPEG
vgg,2,1160,NaN,truck,truck,cr,2440_cl_dnn_cr_truck_40_n03796401_16859.JPEG
vgg,2,1161,NaN,car,car,cr,2441_cl_dnn_cr_car_40_n02814533_45201.JPEG
vgg,2,1162,NaN,car,car,cr,2442_cl_dnn_cr_car_40_n04285008_8242.JPEG
vgg,2,1163,NaN,car,car,cr,2443_cl_dnn_cr_car_40_n04285008_6991.JPEG
vgg,2,1164,NaN,car,car,cr,2444_cl_dnn_cr_car_40_n04285008_9553.JPEG
vgg,2,1165,NaN,car,car,cr,2445_cl_dnn_cr_car_40_n03100240_2932.JPEG
vgg,2,1166,NaN,car,car,cr,2446_cl_dnn_cr_car_40_n02814533_20788.JPEG
vgg,2,1167,NaN,car,car,cr,2447_cl_dnn_cr_car_40_n04285008_13393.JPEG
vgg,2,1168,NaN,car,car,cr,2448_cl_dnn_cr_car_40_n03100240_8160.JPEG
vgg,2,1169,NaN,car,car,cr,2449_cl_dnn_cr_car_40_n03100240_3608.JPEG
vgg,2,1170,NaN,car,car,cr,2450_cl_dnn_cr_car_40_n03100240_5195.JPEG
vgg,2,1171,NaN,car,car,cr,2451_cl_dnn_cr_car_40_n04285008_3828.JPEG
vgg,2,1172,NaN,truck,car,cr,2452_cl_dnn_cr_car_40_n02814533_4403.JPEG
vgg,2,1173,NaN,car,car,cr,2453_cl_dnn_cr_car_40_n02814533_64846.JPEG
vgg,2,1174,NaN,truck,car,cr,2454_cl_dnn_cr_car_40_n02814533_5181.JPEG
vgg,2,1175,NaN,car,car,cr,2455_cl_dnn_cr_car_40_n04285008_11770.JPEG
vgg,2,1176,NaN,car,car,cr,2456_cl_dnn_cr_car_40_n02814533_82879.JPEG
vgg,2,1177,NaN,car,car,cr,2457_cl_dnn_cr_car_40_n04285008_5875.JPEG
vgg,2,1178,NaN,truck,car,cr,2458_cl_dnn_cr_car_40_n03100240_1397.JPEG
vgg,2,1179,NaN,car,car,cr,2459_cl_dnn_cr_car_40_n02814533_55054.JPEG
vgg,2,1180,NaN,truck,car,cr,2460_cl_dnn_cr_car_40_n04285008_9411.JPEG
vgg,2,1181,NaN,car,car,cr,2461_cl_dnn_cr_car_40_n04285008_10108.JPEG
vgg,2,1182,NaN,car,car,cr,2462_cl_dnn_cr_car_40_n02814533_17956.JPEG
vgg,2,1183,NaN,car,car,cr,2463_cl_dnn_cr_car_40_n02814533_1619.JPEG
vgg,2,1184,NaN,car,car,cr,2464_cl_dnn_cr_car_40_n02814533_9479.JPEG
vgg,2,1185,NaN,car,car,cr,2465_cl_dnn_cr_car_40_n02814533_45692.JPEG
vgg,2,1186,NaN,car,car,cr,2466_cl_dnn_cr_car_40_n03100240_2064.JPEG
vgg,2,1187,NaN,car,car,cr,2467_cl_dnn_cr_car_40_n04285008_6852.JPEG
vgg,2,1188,NaN,car,car,cr,2468_cl_dnn_cr_car_40_n03100240_1443.JPEG
vgg,2,1189,NaN,car,car,cr,2469_cl_dnn_cr_car_40_n03100240_6526.JPEG
vgg,2,1190,NaN,car,car,cr,2470_cl_dnn_cr_car_40_n04285008_629.JPEG
vgg,2,1191,NaN,car,car,cr,2471_cl_dnn_cr_car_40_n03100240_2078.JPEG
vgg,2,1192,NaN,car,car,cr,2472_cl_dnn_cr_car_40_n03100240_5018.JPEG
vgg,2,1193,NaN,car,car,cr,2473_cl_dnn_cr_car_40_n03100240_600.JPEG
vgg,2,1194,NaN,car,car,cr,2474_cl_dnn_cr_car_40_n04285008_7332.JPEG
vgg,2,1195,NaN,car,car,cr,2475_cl_dnn_cr_car_40_n02814533_3375.JPEG
vgg,2,1196,NaN,car,car,cr,2476_cl_dnn_cr_car_40_n04285008_11910.JPEG
vgg,2,1197,NaN,car,car,cr,2477_cl_dnn_cr_car_40_n02814533_44503.JPEG
vgg,2,1198,NaN,car,car,cr,2478_cl_dnn_cr_car_40_n03100240_14717.JPEG
vgg,2,1199,NaN,car,car,cr,2479_cl_dnn_cr_car_40_n02814533_2923.JPEG
vgg,2,1200,NaN,car,car,cr,2480_cl_dnn_cr_car_40_n02814533_27180.JPEG
vgg,2,1201,NaN,bird,bird,cr,2481_cl_dnn_cr_bird_40_n01828970_1725.JPEG
vgg,2,1202,NaN,bird,bird,cr,2482_cl_dnn_cr_bird_40_n02028035_11749.JPEG
vgg,2,1203,NaN,bird,bird,cr,2483_cl_dnn_cr_bird_40_n01855672_4642.JPEG
vgg,2,1204,NaN,bird,bird,cr,2484_cl_dnn_cr_bird_40_n02037110_30866.JPEG
vgg,2,1205,NaN,bird,bird,cr,2485_cl_dnn_cr_bird_40_n01614925_1803.JPEG
vgg,2,1206,NaN,bird,bird,cr,2486_cl_dnn_cr_bird_40_n01532829_2411.JPEG
vgg,2,1207,NaN,bird,bird,cr,2487_cl_dnn_cr_bird_40_n02002724_6117.JPEG
vgg,2,1208,NaN,bird,bird,cr,2488_cl_dnn_cr_bird_40_n02006656_5041.JPEG
vgg,2,1209,NaN,bird,bird,cr,2489_cl_dnn_cr_bird_40_n01819313_3530.JPEG
vgg,2,1210,NaN,bird,bird,cr,2490_cl_dnn_cr_bird_40_n01860187_5508.JPEG
vgg,2,1211,NaN,bird,bird,cr,2491_cl_dnn_cr_bird_40_n01843383_1897.JPEG
vgg,2,1212,NaN,bird,bird,cr,2492_cl_dnn_cr_bird_40_n01843383_1579.JPEG
vgg,2,1213,NaN,bird,bird,cr,2493_cl_dnn_cr_bird_40_n02009229_4328.JPEG
vgg,2,1214,NaN,bird,bird,cr,2494_cl_dnn_cr_bird_40_n02028035_5997.JPEG
vgg,2,1215,NaN,bird,bird,cr,2495_cl_dnn_cr_bird_40_n01531178_68430.JPEG
vgg,2,1216,NaN,bird,bird,cr,2496_cl_dnn_cr_bird_40_n02027492_9347.JPEG
vgg,2,1217,NaN,bird,bird,cr,2497_cl_dnn_cr_bird_40_n02018795_1659.JPEG
vgg,2,1218,NaN,bird,bird,cr,2498_cl_dnn_cr_bird_40_n02007558_864.JPEG
vgg,2,1219,NaN,bird,bird,cr,2499_cl_dnn_cr_bird_40_n01860187_212.JPEG
vgg,2,1220,NaN,bird,bird,cr,2500_cl_dnn_cr_bird_40_n02037110_12302.JPEG
vgg,2,1221,NaN,bird,bird,cr,2501_cl_dnn_cr_bird_40_n01860187_21903.JPEG
vgg,2,1222,NaN,bird,bird,cr,2502_cl_dnn_cr_bird_40_n01532829_9232.JPEG
vgg,2,1223,NaN,bird,bird,cr,2503_cl_dnn_cr_bird_40_n01622779_4959.JPEG
vgg,2,1224,NaN,bird,bird,cr,2504_cl_dnn_cr_bird_40_n02037110_5010.JPEG
vgg,2,1225,NaN,bird,bird,cr,2505_cl_dnn_cr_bird_40_n01829413_617.JPEG
vgg,2,1226,NaN,bird,bird,cr,2506_cl_dnn_cr_bird_40_n02007558_4875.JPEG
vgg,2,1227,NaN,bird,bird,cr,2507_cl_dnn_cr_bird_40_n01560419_1872.JPEG
vgg,2,1228,NaN,bird,bird,cr,2508_cl_dnn_cr_bird_40_n01855672_49954.JPEG
vgg,2,1229,NaN,bird,bird,cr,2509_cl_dnn_cr_bird_40_n01824575_1793.JPEG
vgg,2,1230,NaN,bird,bird,cr,2510_cl_dnn_cr_bird_40_n02028035_1796.JPEG
vgg,2,1231,NaN,bird,bird,cr,2511_cl_dnn_cr_bird_40_n01798484_14258.JPEG
vgg,2,1232,NaN,bird,bird,cr,2512_cl_dnn_cr_bird_40_n01843383_469.JPEG
vgg,2,1233,NaN,bird,bird,cr,2513_cl_dnn_cr_bird_40_n01582220_5626.JPEG
vgg,2,1234,NaN,bird,bird,cr,2514_cl_dnn_cr_bird_40_n02009912_8197.JPEG
vgg,2,1235,NaN,bird,bird,cr,2515_cl_dnn_cr_bird_40_n01824575_6898.JPEG
vgg,2,1236,NaN,bird,bird,cr,2516_cl_dnn_cr_bird_40_n02011460_4836.JPEG
vgg,2,1237,NaN,bird,bird,cr,2517_cl_dnn_cr_bird_40_n01537544_5303.JPEG
vgg,2,1238,NaN,bird,bird,cr,2518_cl_dnn_cr_bird_40_n01828970_7630.JPEG
vgg,2,1239,NaN,bird,bird,cr,2519_cl_dnn_cr_bird_40_n02025239_595.JPEG
vgg,2,1240,NaN,bird,bird,cr,2520_cl_dnn_cr_bird_40_n02017213_16488.JPEG
vgg,2,1241,NaN,dog,dog,cr,2521_cl_dnn_cr_dog_40_n02107312_23.JPEG
vgg,2,1242,NaN,dog,dog,cr,2522_cl_dnn_cr_dog_40_n02093991_226.JPEG
vgg,2,1243,NaN,dog,dog,cr,2523_cl_dnn_cr_dog_40_n02102480_4570.JPEG
vgg,2,1244,NaN,dog,dog,cr,2524_cl_dnn_cr_dog_40_n02113712_212.JPEG
vgg,2,1245,NaN,dog,dog,cr,2525_cl_dnn_cr_dog_40_n02088364_12418.JPEG
vgg,2,1246,NaN,dog,dog,cr,2526_cl_dnn_cr_dog_40_n02093754_611.JPEG
vgg,2,1247,NaN,dog,dog,cr,2527_cl_dnn_cr_dog_40_n02088094_7031.JPEG
vgg,2,1248,NaN,dog,dog,cr,2528_cl_dnn_cr_dog_40_n02105162_2334.JPEG
vgg,2,1249,NaN,dog,dog,cr,2529_cl_dnn_cr_dog_40_n02100735_174.JPEG
vgg,2,1250,NaN,dog,dog,cr,2530_cl_dnn_cr_dog_40_n02093859_4185.JPEG
vgg,2,1251,NaN,dog,dog,cr,2531_cl_dnn_cr_dog_40_n02094114_5879.JPEG
vgg,2,1252,NaN,dog,dog,cr,2532_cl_dnn_cr_dog_40_n02090721_1216.JPEG
vgg,2,1253,NaN,dog,dog,cr,2533_cl_dnn_cr_dog_40_n02088466_2298.JPEG
vgg,2,1254,NaN,dog,dog,cr,2534_cl_dnn_cr_dog_40_n02112706_2762.JPEG
vgg,2,1255,NaN,dog,dog,cr,2535_cl_dnn_cr_dog_40_n02108551_3130.JPEG
vgg,2,1256,NaN,dog,dog,cr,2536_cl_dnn_cr_dog_40_n02106662_12945.JPEG
vgg,2,1257,NaN,dog,dog,cr,2537_cl_dnn_cr_dog_40_n02094114_6236.JPEG
vgg,2,1258,NaN,dog,dog,cr,2538_cl_dnn_cr_dog_40_n02113624_760.JPEG
vgg,2,1259,NaN,dog,dog,cr,2539_cl_dnn_cr_dog_40_n02109525_15685.JPEG
vgg,2,1260,NaN,dog,dog,cr,2540_cl_dnn_cr_dog_40_n02092002_9396.JPEG
vgg,2,1261,NaN,dog,dog,cr,2541_cl_dnn_cr_dog_40_n02086646_7958.JPEG
vgg,2,1262,NaN,dog,dog,cr,2542_cl_dnn_cr_dog_40_n02096294_1629.JPEG
vgg,2,1263,NaN,dog,dog,cr,2543_cl_dnn_cr_dog_40_n02100583_4920.JPEG
vgg,2,1264,NaN,dog,dog,cr,2544_cl_dnn_cr_dog_40_n02088632_9467.JPEG
vgg,2,1265,NaN,dog,dog,cr,2545_cl_dnn_cr_dog_40_n02112706_3642.JPEG
vgg,2,1266,NaN,dog,dog,cr,2546_cl_dnn_cr_dog_40_n02105056_13455.JPEG
vgg,2,1267,NaN,dog,dog,cr,2547_cl_dnn_cr_dog_40_n02097298_6672.JPEG
vgg,2,1268,NaN,dog,dog,cr,2548_cl_dnn_cr_dog_40_n02101556_4875.JPEG
vgg,2,1269,NaN,dog,dog,cr,2549_cl_dnn_cr_dog_40_n02101388_6593.JPEG
vgg,2,1270,NaN,dog,dog,cr,2550_cl_dnn_cr_dog_40_n02107574_576.JPEG
vgg,2,1271,NaN,dog,dog,cr,2551_cl_dnn_cr_dog_40_n02108422_1548.JPEG
vgg,2,1272,NaN,dog,dog,cr,2552_cl_dnn_cr_dog_40_n02097047_356.JPEG
vgg,2,1273,NaN,dog,dog,cr,2553_cl_dnn_cr_dog_40_n02101556_2726.JPEG
vgg,2,1274,NaN,dog,dog,cr,2554_cl_dnn_cr_dog_40_n02093754_8009.JPEG
vgg,2,1275,NaN,dog,dog,cr,2555_cl_dnn_cr_dog_40_n02107574_1246.JPEG
vgg,2,1276,NaN,dog,dog,cr,2556_cl_dnn_cr_dog_40_n02093256_13019.JPEG
vgg,2,1277,NaN,dog,dog,cr,2557_cl_dnn_cr_dog_40_n02097130_5911.JPEG
vgg,2,1278,NaN,dog,dog,cr,2558_cl_dnn_cr_dog_40_n02105162_2132.JPEG
vgg,2,1279,NaN,dog,dog,cr,2559_cl_dnn_cr_dog_40_n02088466_2491.JPEG
vgg,2,1280,NaN,dog,dog,cr,2560_cl_dnn_cr_dog_40_n02087394_20357.JPEG
