subj,session,trial,rt,object_response,category,condition,imagename
alexnet,3,1,NaN,boat,knife,bw,2561_cl_dnn_bw_knife_40_n03041632_19098.JPEG
alexnet,3,2,NaN,clock,knife,bw,2562_cl_dnn_bw_knife_40_n03041632_42472.JPEG
alexnet,3,3,NaN,knife,knife,bw,2563_cl_dnn_bw_knife_40_n03041632_46185.JPEG
alexnet,3,4,NaN,keyboard,knife,bw,2564_cl_dnn_bw_knife_40_n03041632_84240.JPEG
alexnet,3,5,NaN,knife,knife,bw,2565_cl_dnn_bw_knife_40_n03041632_12748.JPEG
alexnet,3,6,NaN,knife,knife,bw,2566_cl_dnn_bw_knife_40_n03041632_100645.JPEG
alexnet,3,7,NaN,chair,knife,bw,2567_cl_dnn_bw_knife_40_n03041632_47759.JPEG
alexnet,3,8,NaN,chair,knife,bw,2568_cl_dnn_bw_knife_40_n03041632_41077.JPEG
alexnet,3,9,NaN,knife,knife,bw,2569_cl_dnn_bw_knife_40_n03041632_1607.JPEG
alexnet,3,10,NaN,boat,knife,bw,2570_cl_dnn_bw_knife_40_n03041632_37949.JPEG
alexnet,3,11,NaN,knife,knife,bw,2571_cl_dnn_bw_knife_40_n03041632_89391.JPEG
alexnet,3,12,NaN,knife,knife,bw,2572_cl_dnn_bw_knife_40_n03041632_85416.JPEG
alexnet,3,13,NaN,knife,knife,bw,2573_cl_dnn_bw_knife_40_n03041632_41381.JPEG
alexnet,3,14,NaN,dog,knife,bw,2574_cl_dnn_bw_knife_40_n03041632_16826.JPEG
alexnet,3,15,NaN,knife,knife,bw,2575_cl_dnn_bw_knife_40_n03041632_25479.JPEG
alexnet,3,16,NaN,keyboard,knife,bw,2576_cl_dnn_bw_knife_40_n03041632_9406.JPEG
alexnet,3,17,NaN,knife,knife,bw,2577_cl_dnn_bw_knife_40_n03041632_751.JPEG
alexnet,3,18,NaN,knife,knife,bw,2578_cl_dnn_bw_knife_40_n03041632_96714.JPEG
alexnet,3,19,NaN,knife,knife,bw,2579_cl_dnn_bw_knife_40_n03041632_13203.JPEG
alexnet,3,20,NaN,dog,knife,bw,2580_cl_dnn_bw_knife_40_n03041632_35116.JPEG
alexnet,3,21,NaN,knife,knife,bw,2581_cl_dnn_bw_knife_40_n03041632_20697.JPEG
alexnet,3,22,NaN,knife,knife,bw,2582_cl_dnn_bw_knife_40_n03041632_33488.JPEG
alexnet,3,23,NaN,truck,knife,bw,2583_cl_dnn_bw_knife_40_n03041632_14916.JPEG
alexnet,3,24,NaN,bird,knife,bw,2584_cl_dnn_bw_knife_40_n03041632_3717.JPEG
alexnet,3,25,NaN,keyboard,knife,bw,2585_cl_dnn_bw_knife_40_n03041632_927.JPEG
alexnet,3,26,NaN,keyboard,knife,bw,2586_cl_dnn_bw_knife_40_n03041632_24113.JPEG
alexnet,3,27,NaN,chair,knife,bw,2587_cl_dnn_bw_knife_40_n03041632_3210.JPEG
alexnet,3,28,NaN,clock,knife,bw,2588_cl_dnn_bw_knife_40_n03041632_30821.JPEG
alexnet,3,29,NaN,knife,knife,bw,2589_cl_dnn_bw_knife_40_n03041632_51225.JPEG
alexnet,3,30,NaN,knife,knife,bw,2590_cl_dnn_bw_knife_40_n03041632_20217.JPEG
alexnet,3,31,NaN,knife,knife,bw,2591_cl_dnn_bw_knife_40_n03041632_33424.JPEG
alexnet,3,32,NaN,knife,knife,bw,2592_cl_dnn_bw_knife_40_n03041632_3171.JPEG
alexnet,3,33,NaN,knife,knife,bw,2593_cl_dnn_bw_knife_40_n03041632_11613.JPEG
alexnet,3,34,NaN,knife,knife,bw,2594_cl_dnn_bw_knife_40_n03041632_3101.JPEG
alexnet,3,35,NaN,knife,knife,bw,2595_cl_dnn_bw_knife_40_n03041632_22480.JPEG
alexnet,3,36,NaN,knife,knife,bw,2596_cl_dnn_bw_knife_40_n03041632_5427.JPEG
alexnet,3,37,NaN,clock,knife,bw,2597_cl_dnn_bw_knife_40_n03041632_26340.JPEG
alexnet,3,38,NaN,knife,knife,bw,2598_cl_dnn_bw_knife_40_n03041632_13108.JPEG
alexnet,3,39,NaN,chair,knife,bw,2599_cl_dnn_bw_knife_40_n03041632_20517.JPEG
alexnet,3,40,NaN,keyboard,knife,bw,2600_cl_dnn_bw_knife_40_n03041632_11475.JPEG
alexnet,3,41,NaN,keyboard,keyboard,bw,2601_cl_dnn_bw_keyboard_40_n03085013_31972.JPEG
alexnet,3,42,NaN,keyboard,keyboard,bw,2602_cl_dnn_bw_keyboard_40_n03085013_24159.JPEG
alexnet,3,43,NaN,keyboard,keyboard,bw,2603_cl_dnn_bw_keyboard_40_n04505470_5127.JPEG
alexnet,3,44,NaN,keyboard,keyboard,bw,2604_cl_dnn_bw_keyboard_40_n03085013_23319.JPEG
alexnet,3,45,NaN,keyboard,keyboard,bw,2605_cl_dnn_bw_keyboard_40_n04505470_2816.JPEG
alexnet,3,46,NaN,keyboard,keyboard,bw,2606_cl_dnn_bw_keyboard_40_n03085013_28686.JPEG
alexnet,3,47,NaN,keyboard,keyboard,bw,2607_cl_dnn_bw_keyboard_40_n04505470_3824.JPEG
alexnet,3,48,NaN,keyboard,keyboard,bw,2608_cl_dnn_bw_keyboard_40_n03085013_108.JPEG
alexnet,3,49,NaN,keyboard,keyboard,bw,2609_cl_dnn_bw_keyboard_40_n03085013_4512.JPEG
alexnet,3,50,NaN,keyboard,keyboard,bw,2610_cl_dnn_bw_keyboard_40_n03085013_30660.JPEG
alexnet,3,51,NaN,keyboard,keyboard,bw,2611_cl_dnn_bw_keyboard_40_n04505470_4447.JPEG
alexnet,3,52,NaN,keyboard,keyboard,bw,2612_cl_dnn_bw_keyboard_40_n04505470_4498.JPEG
alexnet,3,53,NaN,cat,keyboard,bw,2613_cl_dnn_bw_keyboard_40_n03085013_20898.JPEG
alexnet,3,54,NaN,keyboard,keyboard,bw,2614_cl_dnn_bw_keyboard_40_n04505470_2787.JPEG
alexnet,3,55,NaN,keyboard,keyboard,bw,2615_cl_dnn_bw_keyboard_40_n03085013_6313.JPEG
alexnet,3,56,NaN,keyboard,keyboard,bw,2616_cl_dnn_bw_keyboard_40_n04505470_1457.JPEG
alexnet,3,57,NaN,keyboard,keyboard,bw,2617_cl_dnn_bw_keyboard_40_n04505470_945.JPEG
alexnet,3,58,NaN,keyboard,keyboard,bw,2618_cl_dnn_bw_keyboard_40_n04505470_5022.JPEG
alexnet,3,59,NaN,keyboard,keyboard,bw,2619_cl_dnn_bw_keyboard_40_n03085013_21089.JPEG
alexnet,3,60,NaN,keyboard,keyboard,bw,2620_cl_dnn_bw_keyboard_40_n04505470_1120.JPEG
alexnet,3,61,NaN,keyboard,keyboard,bw,2621_cl_dnn_bw_keyboard_40_n03085013_23764.JPEG
alexnet,3,62,NaN,keyboard,keyboard,bw,2622_cl_dnn_bw_keyboard_40_n03085013_22494.JPEG
alexnet,3,63,NaN,keyboard,keyboard,bw,2623_cl_dnn_bw_keyboard_40_n03085013_7752.JPEG
alexnet,3,64,NaN,keyboard,keyboard,bw,2624_cl_dnn_bw_keyboard_40_n03085013_21967.JPEG
alexnet,3,65,NaN,keyboard,keyboard,bw,2625_cl_dnn_bw_keyboard_40_n04505470_1874.JPEG
alexnet,3,66,NaN,keyboard,keyboard,bw,2626_cl_dnn_bw_keyboard_40_n03085013_4374.JPEG
alexnet,3,67,NaN,keyboard,keyboard,bw,2627_cl_dnn_bw_keyboard_40_n04505470_1516.JPEG
alexnet,3,68,NaN,chair,keyboard,bw,2628_cl_dnn_bw_keyboard_40_n03085013_13085.JPEG
alexnet,3,69,NaN,keyboard,keyboard,bw,2629_cl_dnn_bw_keyboard_40_n03085013_23239.JPEG
alexnet,3,70,NaN,keyboard,keyboard,bw,2630_cl_dnn_bw_keyboard_40_n04505470_2972.JPEG
alexnet,3,71,NaN,keyboard,keyboard,bw,2631_cl_dnn_bw_keyboard_40_n04505470_8610.JPEG
alexnet,3,72,NaN,keyboard,keyboard,bw,2632_cl_dnn_bw_keyboard_40_n03085013_8714.JPEG
alexnet,3,73,NaN,keyboard,keyboard,bw,2633_cl_dnn_bw_keyboard_40_n04505470_4689.JPEG
alexnet,3,74,NaN,keyboard,keyboard,bw,2634_cl_dnn_bw_keyboard_40_n03085013_21148.JPEG
alexnet,3,75,NaN,keyboard,keyboard,bw,2635_cl_dnn_bw_keyboard_40_n03085013_23962.JPEG
alexnet,3,76,NaN,keyboard,keyboard,bw,2636_cl_dnn_bw_keyboard_40_n04505470_7388.JPEG
alexnet,3,77,NaN,dog,keyboard,bw,2637_cl_dnn_bw_keyboard_40_n03085013_21289.JPEG
alexnet,3,78,NaN,keyboard,keyboard,bw,2638_cl_dnn_bw_keyboard_40_n04505470_3970.JPEG
alexnet,3,79,NaN,keyboard,keyboard,bw,2639_cl_dnn_bw_keyboard_40_n04505470_5013.JPEG
alexnet,3,80,NaN,keyboard,keyboard,bw,2640_cl_dnn_bw_keyboard_40_n03085013_14237.JPEG
alexnet,3,81,NaN,elephant,elephant,bw,2641_cl_dnn_bw_elephant_40_n02504013_6548.JPEG
alexnet,3,82,NaN,dog,elephant,bw,2642_cl_dnn_bw_elephant_40_n02504458_7005.JPEG
alexnet,3,83,NaN,elephant,elephant,bw,2643_cl_dnn_bw_elephant_40_n02504458_1271.JPEG
alexnet,3,84,NaN,elephant,elephant,bw,2644_cl_dnn_bw_elephant_40_n02504013_6897.JPEG
alexnet,3,85,NaN,elephant,elephant,bw,2645_cl_dnn_bw_elephant_40_n02504013_8863.JPEG
alexnet,3,86,NaN,bicycle,elephant,bw,2646_cl_dnn_bw_elephant_40_n02504458_12938.JPEG
alexnet,3,87,NaN,elephant,elephant,bw,2647_cl_dnn_bw_elephant_40_n02504013_4071.JPEG
alexnet,3,88,NaN,elephant,elephant,bw,2648_cl_dnn_bw_elephant_40_n02504013_10159.JPEG
alexnet,3,89,NaN,elephant,elephant,bw,2649_cl_dnn_bw_elephant_40_n02504458_6058.JPEG
alexnet,3,90,NaN,elephant,elephant,bw,2650_cl_dnn_bw_elephant_40_n02504458_13382.JPEG
alexnet,3,91,NaN,elephant,elephant,bw,2651_cl_dnn_bw_elephant_40_n02504013_19694.JPEG
alexnet,3,92,NaN,elephant,elephant,bw,2652_cl_dnn_bw_elephant_40_n02504013_8984.JPEG
alexnet,3,93,NaN,elephant,elephant,bw,2653_cl_dnn_bw_elephant_40_n02504013_1183.JPEG
alexnet,3,94,NaN,elephant,elephant,bw,2654_cl_dnn_bw_elephant_40_n02504013_8440.JPEG
alexnet,3,95,NaN,elephant,elephant,bw,2655_cl_dnn_bw_elephant_40_n02504013_3307.JPEG
alexnet,3,96,NaN,elephant,elephant,bw,2656_cl_dnn_bw_elephant_40_n02504013_1854.JPEG
alexnet,3,97,NaN,elephant,elephant,bw,2657_cl_dnn_bw_elephant_40_n02504013_1743.JPEG
alexnet,3,98,NaN,elephant,elephant,bw,2658_cl_dnn_bw_elephant_40_n02504458_3234.JPEG
alexnet,3,99,NaN,elephant,elephant,bw,2659_cl_dnn_bw_elephant_40_n02504013_579.JPEG
alexnet,3,100,NaN,elephant,elephant,bw,2660_cl_dnn_bw_elephant_40_n02504458_4234.JPEG
alexnet,3,101,NaN,elephant,elephant,bw,2661_cl_dnn_bw_elephant_40_n02504013_5636.JPEG
alexnet,3,102,NaN,elephant,elephant,bw,2662_cl_dnn_bw_elephant_40_n02504013_3084.JPEG
alexnet,3,103,NaN,elephant,elephant,bw,2663_cl_dnn_bw_elephant_40_n02504458_7565.JPEG
alexnet,3,104,NaN,elephant,elephant,bw,2664_cl_dnn_bw_elephant_40_n02504458_2970.JPEG
alexnet,3,105,NaN,elephant,elephant,bw,2665_cl_dnn_bw_elephant_40_n02504013_701.JPEG
alexnet,3,106,NaN,elephant,elephant,bw,2666_cl_dnn_bw_elephant_40_n02504013_8572.JPEG
alexnet,3,107,NaN,elephant,elephant,bw,2667_cl_dnn_bw_elephant_40_n02504013_10229.JPEG
alexnet,3,108,NaN,elephant,elephant,bw,2668_cl_dnn_bw_elephant_40_n02504013_7635.JPEG
alexnet,3,109,NaN,elephant,elephant,bw,2669_cl_dnn_bw_elephant_40_n02504013_4436.JPEG
alexnet,3,110,NaN,elephant,elephant,bw,2670_cl_dnn_bw_elephant_40_n02504013_347.JPEG
alexnet,3,111,NaN,elephant,elephant,bw,2671_cl_dnn_bw_elephant_40_n02504458_6428.JPEG
alexnet,3,112,NaN,elephant,elephant,bw,2672_cl_dnn_bw_elephant_40_n02504458_5523.JPEG
alexnet,3,113,NaN,elephant,elephant,bw,2673_cl_dnn_bw_elephant_40_n02504458_3032.JPEG
alexnet,3,114,NaN,elephant,elephant,bw,2674_cl_dnn_bw_elephant_40_n02504013_7046.JPEG
alexnet,3,115,NaN,elephant,elephant,bw,2675_cl_dnn_bw_elephant_40_n02504013_22099.JPEG
alexnet,3,116,NaN,elephant,elephant,bw,2676_cl_dnn_bw_elephant_40_n02504013_498.JPEG
alexnet,3,117,NaN,elephant,elephant,bw,2677_cl_dnn_bw_elephant_40_n02504458_6835.JPEG
alexnet,3,118,NaN,elephant,elephant,bw,2678_cl_dnn_bw_elephant_40_n02504458_2494.JPEG
alexnet,3,119,NaN,elephant,elephant,bw,2679_cl_dnn_bw_elephant_40_n02504458_691.JPEG
alexnet,3,120,NaN,elephant,elephant,bw,2680_cl_dnn_bw_elephant_40_n02504458_12449.JPEG
alexnet,3,121,NaN,bicycle,bicycle,bw,2681_cl_dnn_bw_bicycle_40_n02835271_5873.JPEG
alexnet,3,122,NaN,bicycle,bicycle,bw,2682_cl_dnn_bw_bicycle_40_n03792782_3591.JPEG
alexnet,3,123,NaN,bicycle,bicycle,bw,2683_cl_dnn_bw_bicycle_40_n02835271_6580.JPEG
alexnet,3,124,NaN,bicycle,bicycle,bw,2684_cl_dnn_bw_bicycle_40_n02835271_15911.JPEG
alexnet,3,125,NaN,bicycle,bicycle,bw,2685_cl_dnn_bw_bicycle_40_n03792782_12884.JPEG
alexnet,3,126,NaN,dog,bicycle,bw,2686_cl_dnn_bw_bicycle_40_n02835271_6680.JPEG
alexnet,3,127,NaN,bottle,bicycle,bw,2687_cl_dnn_bw_bicycle_40_n03792782_15248.JPEG
alexnet,3,128,NaN,bicycle,bicycle,bw,2688_cl_dnn_bw_bicycle_40_n02835271_12806.JPEG
alexnet,3,129,NaN,bicycle,bicycle,bw,2689_cl_dnn_bw_bicycle_40_n03792782_5333.JPEG
alexnet,3,130,NaN,bicycle,bicycle,bw,2690_cl_dnn_bw_bicycle_40_n03792782_70404.JPEG
alexnet,3,131,NaN,bicycle,bicycle,bw,2691_cl_dnn_bw_bicycle_40_n03792782_634.JPEG
alexnet,3,132,NaN,bicycle,bicycle,bw,2692_cl_dnn_bw_bicycle_40_n03792782_12411.JPEG
alexnet,3,133,NaN,bicycle,bicycle,bw,2693_cl_dnn_bw_bicycle_40_n02835271_18205.JPEG
alexnet,3,134,NaN,bicycle,bicycle,bw,2694_cl_dnn_bw_bicycle_40_n03792782_4545.JPEG
alexnet,3,135,NaN,bicycle,bicycle,bw,2695_cl_dnn_bw_bicycle_40_n03792782_6989.JPEG
alexnet,3,136,NaN,truck,bicycle,bw,2696_cl_dnn_bw_bicycle_40_n03792782_1030.JPEG
alexnet,3,137,NaN,bicycle,bicycle,bw,2697_cl_dnn_bw_bicycle_40_n02835271_19275.JPEG
alexnet,3,138,NaN,bicycle,bicycle,bw,2698_cl_dnn_bw_bicycle_40_n03792782_18769.JPEG
alexnet,3,139,NaN,bicycle,bicycle,bw,2699_cl_dnn_bw_bicycle_40_n02835271_10362.JPEG
alexnet,3,140,NaN,bicycle,bicycle,bw,2700_cl_dnn_bw_bicycle_40_n02835271_27777.JPEG
alexnet,3,141,NaN,bicycle,bicycle,bw,2701_cl_dnn_bw_bicycle_40_n02835271_5573.JPEG
alexnet,3,142,NaN,bicycle,bicycle,bw,2702_cl_dnn_bw_bicycle_40_n02835271_6074.JPEG
alexnet,3,143,NaN,bicycle,bicycle,bw,2703_cl_dnn_bw_bicycle_40_n03792782_18190.JPEG
alexnet,3,144,NaN,bicycle,bicycle,bw,2704_cl_dnn_bw_bicycle_40_n03792782_41388.JPEG
alexnet,3,145,NaN,bicycle,bicycle,bw,2705_cl_dnn_bw_bicycle_40_n03792782_3176.JPEG
alexnet,3,146,NaN,bicycle,bicycle,bw,2706_cl_dnn_bw_bicycle_40_n03792782_11679.JPEG
alexnet,3,147,NaN,bicycle,bicycle,bw,2707_cl_dnn_bw_bicycle_40_n02835271_12852.JPEG
alexnet,3,148,NaN,bicycle,bicycle,bw,2708_cl_dnn_bw_bicycle_40_n03792782_26306.JPEG
alexnet,3,149,NaN,bicycle,bicycle,bw,2709_cl_dnn_bw_bicycle_40_n02835271_35743.JPEG
alexnet,3,150,NaN,bicycle,bicycle,bw,2710_cl_dnn_bw_bicycle_40_n02835271_21540.JPEG
alexnet,3,151,NaN,bicycle,bicycle,bw,2711_cl_dnn_bw_bicycle_40_n02835271_20858.JPEG
alexnet,3,152,NaN,bicycle,bicycle,bw,2712_cl_dnn_bw_bicycle_40_n03792782_7770.JPEG
alexnet,3,153,NaN,bicycle,bicycle,bw,2713_cl_dnn_bw_bicycle_40_n03792782_73754.JPEG
alexnet,3,154,NaN,bicycle,bicycle,bw,2714_cl_dnn_bw_bicycle_40_n03792782_32689.JPEG
alexnet,3,155,NaN,bicycle,bicycle,bw,2715_cl_dnn_bw_bicycle_40_n03792782_55401.JPEG
alexnet,3,156,NaN,bicycle,bicycle,bw,2716_cl_dnn_bw_bicycle_40_n03792782_6663.JPEG
alexnet,3,157,NaN,bicycle,bicycle,bw,2717_cl_dnn_bw_bicycle_40_n03792782_18884.JPEG
alexnet,3,158,NaN,truck,bicycle,bw,2718_cl_dnn_bw_bicycle_40_n02835271_1895.JPEG
alexnet,3,159,NaN,bicycle,bicycle,bw,2719_cl_dnn_bw_bicycle_40_n02835271_15507.JPEG
alexnet,3,160,NaN,bicycle,bicycle,bw,2720_cl_dnn_bw_bicycle_40_n03792782_146.JPEG
alexnet,3,161,NaN,airplane,airplane,bw,2721_cl_dnn_bw_airplane_40_n02690373_4133.JPEG
alexnet,3,162,NaN,airplane,airplane,bw,2722_cl_dnn_bw_airplane_40_n02690373_6899.JPEG
alexnet,3,163,NaN,airplane,airplane,bw,2723_cl_dnn_bw_airplane_40_n02690373_1538.JPEG
alexnet,3,164,NaN,airplane,airplane,bw,2724_cl_dnn_bw_airplane_40_n02690373_3100.JPEG
alexnet,3,165,NaN,airplane,airplane,bw,2725_cl_dnn_bw_airplane_40_n02690373_6549.JPEG
alexnet,3,166,NaN,airplane,airplane,bw,2726_cl_dnn_bw_airplane_40_n02690373_2643.JPEG
alexnet,3,167,NaN,airplane,airplane,bw,2727_cl_dnn_bw_airplane_40_n02690373_7457.JPEG
alexnet,3,168,NaN,airplane,airplane,bw,2728_cl_dnn_bw_airplane_40_n02690373_8406.JPEG
alexnet,3,169,NaN,airplane,airplane,bw,2729_cl_dnn_bw_airplane_40_n02690373_6524.JPEG
alexnet,3,170,NaN,airplane,airplane,bw,2730_cl_dnn_bw_airplane_40_n02690373_1821.JPEG
alexnet,3,171,NaN,airplane,airplane,bw,2731_cl_dnn_bw_airplane_40_n02690373_7281.JPEG
alexnet,3,172,NaN,airplane,airplane,bw,2732_cl_dnn_bw_airplane_40_n02690373_19133.JPEG
alexnet,3,173,NaN,airplane,airplane,bw,2733_cl_dnn_bw_airplane_40_n02690373_11799.JPEG
alexnet,3,174,NaN,airplane,airplane,bw,2734_cl_dnn_bw_airplane_40_n02690373_1781.JPEG
alexnet,3,175,NaN,airplane,airplane,bw,2735_cl_dnn_bw_airplane_40_n02690373_1732.JPEG
alexnet,3,176,NaN,airplane,airplane,bw,2736_cl_dnn_bw_airplane_40_n02690373_13384.JPEG
alexnet,3,177,NaN,airplane,airplane,bw,2737_cl_dnn_bw_airplane_40_n02690373_18848.JPEG
alexnet,3,178,NaN,airplane,airplane,bw,2738_cl_dnn_bw_airplane_40_n02690373_9012.JPEG
alexnet,3,179,NaN,airplane,airplane,bw,2739_cl_dnn_bw_airplane_40_n02690373_4412.JPEG
alexnet,3,180,NaN,airplane,airplane,bw,2740_cl_dnn_bw_airplane_40_n02690373_15472.JPEG
alexnet,3,181,NaN,bird,airplane,bw,2741_cl_dnn_bw_airplane_40_n02690373_4066.JPEG
alexnet,3,182,NaN,airplane,airplane,bw,2742_cl_dnn_bw_airplane_40_n02690373_3709.JPEG
alexnet,3,183,NaN,airplane,airplane,bw,2743_cl_dnn_bw_airplane_40_n02690373_563.JPEG
alexnet,3,184,NaN,airplane,airplane,bw,2744_cl_dnn_bw_airplane_40_n02690373_4495.JPEG
alexnet,3,185,NaN,airplane,airplane,bw,2745_cl_dnn_bw_airplane_40_n02690373_4217.JPEG
alexnet,3,186,NaN,airplane,airplane,bw,2746_cl_dnn_bw_airplane_40_n02690373_17063.JPEG
alexnet,3,187,NaN,airplane,airplane,bw,2747_cl_dnn_bw_airplane_40_n02690373_6716.JPEG
alexnet,3,188,NaN,airplane,airplane,bw,2748_cl_dnn_bw_airplane_40_n02690373_18111.JPEG
alexnet,3,189,NaN,clock,airplane,bw,2749_cl_dnn_bw_airplane_40_n02690373_6812.JPEG
alexnet,3,190,NaN,airplane,airplane,bw,2750_cl_dnn_bw_airplane_40_n02690373_7115.JPEG
alexnet,3,191,NaN,airplane,airplane,bw,2751_cl_dnn_bw_airplane_40_n02690373_6834.JPEG
alexnet,3,192,NaN,airplane,airplane,bw,2752_cl_dnn_bw_airplane_40_n02690373_1277.JPEG
alexnet,3,193,NaN,airplane,airplane,bw,2753_cl_dnn_bw_airplane_40_n02690373_13613.JPEG
alexnet,3,194,NaN,airplane,airplane,bw,2754_cl_dnn_bw_airplane_40_n02690373_9335.JPEG
alexnet,3,195,NaN,airplane,airplane,bw,2755_cl_dnn_bw_airplane_40_n02690373_2692.JPEG
alexnet,3,196,NaN,airplane,airplane,bw,2756_cl_dnn_bw_airplane_40_n02690373_7145.JPEG
alexnet,3,197,NaN,airplane,airplane,bw,2757_cl_dnn_bw_airplane_40_n02690373_8524.JPEG
alexnet,3,198,NaN,airplane,airplane,bw,2758_cl_dnn_bw_airplane_40_n02690373_4144.JPEG
alexnet,3,199,NaN,airplane,airplane,bw,2759_cl_dnn_bw_airplane_40_n02690373_8547.JPEG
alexnet,3,200,NaN,airplane,airplane,bw,2760_cl_dnn_bw_airplane_40_n02690373_4921.JPEG
alexnet,3,201,NaN,clock,clock,bw,2761_cl_dnn_bw_clock_40_n04548280_1810.JPEG
alexnet,3,202,NaN,clock,clock,bw,2762_cl_dnn_bw_clock_40_n04548280_9340.JPEG
alexnet,3,203,NaN,clock,clock,bw,2763_cl_dnn_bw_clock_40_n04548280_5407.JPEG
alexnet,3,204,NaN,clock,clock,bw,2764_cl_dnn_bw_clock_40_n04548280_5224.JPEG
alexnet,3,205,NaN,clock,clock,bw,2765_cl_dnn_bw_clock_40_n02708093_6822.JPEG
alexnet,3,206,NaN,clock,clock,bw,2766_cl_dnn_bw_clock_40_n03196217_454.JPEG
alexnet,3,207,NaN,clock,clock,bw,2767_cl_dnn_bw_clock_40_n04548280_8980.JPEG
alexnet,3,208,NaN,truck,clock,bw,2768_cl_dnn_bw_clock_40_n03196217_4974.JPEG
alexnet,3,209,NaN,clock,clock,bw,2769_cl_dnn_bw_clock_40_n04548280_98.JPEG
alexnet,3,210,NaN,bottle,clock,bw,2770_cl_dnn_bw_clock_40_n02708093_2959.JPEG
alexnet,3,211,NaN,clock,clock,bw,2771_cl_dnn_bw_clock_40_n04548280_16295.JPEG
alexnet,3,212,NaN,clock,clock,bw,2772_cl_dnn_bw_clock_40_n02708093_111.JPEG
alexnet,3,213,NaN,clock,clock,bw,2773_cl_dnn_bw_clock_40_n04548280_2062.JPEG
alexnet,3,214,NaN,clock,clock,bw,2774_cl_dnn_bw_clock_40_n03196217_6707.JPEG
alexnet,3,215,NaN,clock,clock,bw,2775_cl_dnn_bw_clock_40_n02708093_1285.JPEG
alexnet,3,216,NaN,clock,clock,bw,2776_cl_dnn_bw_clock_40_n03196217_1272.JPEG
alexnet,3,217,NaN,clock,clock,bw,2777_cl_dnn_bw_clock_40_n04548280_8071.JPEG
alexnet,3,218,NaN,clock,clock,bw,2778_cl_dnn_bw_clock_40_n04548280_7781.JPEG
alexnet,3,219,NaN,clock,clock,bw,2779_cl_dnn_bw_clock_40_n02708093_1482.JPEG
alexnet,3,220,NaN,clock,clock,bw,2780_cl_dnn_bw_clock_40_n03196217_11724.JPEG
alexnet,3,221,NaN,clock,clock,bw,2781_cl_dnn_bw_clock_40_n03196217_1829.JPEG
alexnet,3,222,NaN,clock,clock,bw,2782_cl_dnn_bw_clock_40_n03196217_10947.JPEG
alexnet,3,223,NaN,clock,clock,bw,2783_cl_dnn_bw_clock_40_n04548280_6792.JPEG
alexnet,3,224,NaN,clock,clock,bw,2784_cl_dnn_bw_clock_40_n02708093_462.JPEG
alexnet,3,225,NaN,clock,clock,bw,2785_cl_dnn_bw_clock_40_n03196217_5103.JPEG
alexnet,3,226,NaN,clock,clock,bw,2786_cl_dnn_bw_clock_40_n02708093_3301.JPEG
alexnet,3,227,NaN,clock,clock,bw,2787_cl_dnn_bw_clock_40_n04548280_668.JPEG
alexnet,3,228,NaN,clock,clock,bw,2788_cl_dnn_bw_clock_40_n04548280_499.JPEG
alexnet,3,229,NaN,clock,clock,bw,2789_cl_dnn_bw_clock_40_n02708093_3417.JPEG
alexnet,3,230,NaN,clock,clock,bw,2790_cl_dnn_bw_clock_40_n02708093_2006.JPEG
alexnet,3,231,NaN,clock,clock,bw,2791_cl_dnn_bw_clock_40_n04548280_7478.JPEG
alexnet,3,232,NaN,clock,clock,bw,2792_cl_dnn_bw_clock_40_n03196217_3430.JPEG
alexnet,3,233,NaN,clock,clock,bw,2793_cl_dnn_bw_clock_40_n04548280_4143.JPEG
alexnet,3,234,NaN,clock,clock,bw,2794_cl_dnn_bw_clock_40_n02708093_612.JPEG
alexnet,3,235,NaN,clock,clock,bw,2795_cl_dnn_bw_clock_40_n02708093_4597.JPEG
alexnet,3,236,NaN,clock,clock,bw,2796_cl_dnn_bw_clock_40_n02708093_6959.JPEG
alexnet,3,237,NaN,clock,clock,bw,2797_cl_dnn_bw_clock_40_n03196217_868.JPEG
alexnet,3,238,NaN,clock,clock,bw,2798_cl_dnn_bw_clock_40_n02708093_6591.JPEG
alexnet,3,239,NaN,clock,clock,bw,2799_cl_dnn_bw_clock_40_n04548280_4114.JPEG
alexnet,3,240,NaN,clock,clock,bw,2800_cl_dnn_bw_clock_40_n02708093_1128.JPEG
alexnet,3,241,NaN,oven,oven,bw,2801_cl_dnn_bw_oven_40_n04111531_15710.JPEG
alexnet,3,242,NaN,dog,oven,bw,2802_cl_dnn_bw_oven_40_n04111531_14055.JPEG
alexnet,3,243,NaN,oven,oven,bw,2803_cl_dnn_bw_oven_40_n04111531_172.JPEG
alexnet,3,244,NaN,oven,oven,bw,2804_cl_dnn_bw_oven_40_n04111531_1398.JPEG
alexnet,3,245,NaN,oven,oven,bw,2805_cl_dnn_bw_oven_40_n04111531_2677.JPEG
alexnet,3,246,NaN,cat,oven,bw,2806_cl_dnn_bw_oven_40_n04111531_9779.JPEG
alexnet,3,247,NaN,oven,oven,bw,2807_cl_dnn_bw_oven_40_n04111531_10622.JPEG
alexnet,3,248,NaN,oven,oven,bw,2808_cl_dnn_bw_oven_40_n04111531_13255.JPEG
alexnet,3,249,NaN,oven,oven,bw,2809_cl_dnn_bw_oven_40_n04111531_13820.JPEG
alexnet,3,250,NaN,dog,oven,bw,2810_cl_dnn_bw_oven_40_n04111531_669.JPEG
alexnet,3,251,NaN,oven,oven,bw,2811_cl_dnn_bw_oven_40_n04111531_2024.JPEG
alexnet,3,252,NaN,oven,oven,bw,2812_cl_dnn_bw_oven_40_n04111531_10521.JPEG
alexnet,3,253,NaN,oven,oven,bw,2813_cl_dnn_bw_oven_40_n04111531_7603.JPEG
alexnet,3,254,NaN,dog,oven,bw,2814_cl_dnn_bw_oven_40_n04111531_8934.JPEG
alexnet,3,255,NaN,oven,oven,bw,2815_cl_dnn_bw_oven_40_n04111531_8305.JPEG
alexnet,3,256,NaN,oven,oven,bw,2816_cl_dnn_bw_oven_40_n04111531_10420.JPEG
alexnet,3,257,NaN,oven,oven,bw,2817_cl_dnn_bw_oven_40_n04111531_22704.JPEG
alexnet,3,258,NaN,cat,oven,bw,2818_cl_dnn_bw_oven_40_n04111531_7221.JPEG
alexnet,3,259,NaN,dog,oven,bw,2819_cl_dnn_bw_oven_40_n04111531_6628.JPEG
alexnet,3,260,NaN,oven,oven,bw,2820_cl_dnn_bw_oven_40_n04111531_21980.JPEG
alexnet,3,261,NaN,oven,oven,bw,2821_cl_dnn_bw_oven_40_n04111531_13296.JPEG
alexnet,3,262,NaN,dog,oven,bw,2822_cl_dnn_bw_oven_40_n04111531_545.JPEG
alexnet,3,263,NaN,oven,oven,bw,2823_cl_dnn_bw_oven_40_n04111531_6474.JPEG
alexnet,3,264,NaN,oven,oven,bw,2824_cl_dnn_bw_oven_40_n04111531_4951.JPEG
alexnet,3,265,NaN,oven,oven,bw,2825_cl_dnn_bw_oven_40_n04111531_19631.JPEG
alexnet,3,266,NaN,oven,oven,bw,2826_cl_dnn_bw_oven_40_n04111531_8193.JPEG
alexnet,3,267,NaN,oven,oven,bw,2827_cl_dnn_bw_oven_40_n04111531_21973.JPEG
alexnet,3,268,NaN,clock,oven,bw,2828_cl_dnn_bw_oven_40_n04111531_21733.JPEG
alexnet,3,269,NaN,oven,oven,bw,2829_cl_dnn_bw_oven_40_n04111531_16161.JPEG
alexnet,3,270,NaN,oven,oven,bw,2830_cl_dnn_bw_oven_40_n04111531_643.JPEG
alexnet,3,271,NaN,oven,oven,bw,2831_cl_dnn_bw_oven_40_n04111531_5549.JPEG
alexnet,3,272,NaN,oven,oven,bw,2832_cl_dnn_bw_oven_40_n04111531_10640.JPEG
alexnet,3,273,NaN,oven,oven,bw,2833_cl_dnn_bw_oven_40_n04111531_10476.JPEG
alexnet,3,274,NaN,oven,oven,bw,2834_cl_dnn_bw_oven_40_n04111531_7728.JPEG
alexnet,3,275,NaN,oven,oven,bw,2835_cl_dnn_bw_oven_40_n04111531_18949.JPEG
alexnet,3,276,NaN,oven,oven,bw,2836_cl_dnn_bw_oven_40_n04111531_15627.JPEG
alexnet,3,277,NaN,oven,oven,bw,2837_cl_dnn_bw_oven_40_n04111531_7625.JPEG
alexnet,3,278,NaN,oven,oven,bw,2838_cl_dnn_bw_oven_40_n04111531_6783.JPEG
alexnet,3,279,NaN,truck,oven,bw,2839_cl_dnn_bw_oven_40_n04111531_22834.JPEG
alexnet,3,280,NaN,oven,oven,bw,2840_cl_dnn_bw_oven_40_n04111531_20875.JPEG
alexnet,3,281,NaN,oven,chair,bw,2841_cl_dnn_bw_chair_40_n03376595_1939.JPEG
alexnet,3,282,NaN,chair,chair,bw,2842_cl_dnn_bw_chair_40_n04099969_5143.JPEG
alexnet,3,283,NaN,chair,chair,bw,2843_cl_dnn_bw_chair_40_n03376595_7010.JPEG
alexnet,3,284,NaN,chair,chair,bw,2844_cl_dnn_bw_chair_40_n02791124_4294.JPEG
alexnet,3,285,NaN,chair,chair,bw,2845_cl_dnn_bw_chair_40_n04099969_20650.JPEG
alexnet,3,286,NaN,chair,chair,bw,2846_cl_dnn_bw_chair_40_n02791124_6130.JPEG
alexnet,3,287,NaN,chair,chair,bw,2847_cl_dnn_bw_chair_40_n04099969_25664.JPEG
alexnet,3,288,NaN,chair,chair,bw,2848_cl_dnn_bw_chair_40_n04429376_3452.JPEG
alexnet,3,289,NaN,chair,chair,bw,2849_cl_dnn_bw_chair_40_n04099969_1805.JPEG
alexnet,3,290,NaN,chair,chair,bw,2850_cl_dnn_bw_chair_40_n04099969_27361.JPEG
alexnet,3,291,NaN,chair,chair,bw,2851_cl_dnn_bw_chair_40_n04099969_21821.JPEG
alexnet,3,292,NaN,chair,chair,bw,2852_cl_dnn_bw_chair_40_n03376595_13927.JPEG
alexnet,3,293,NaN,chair,chair,bw,2853_cl_dnn_bw_chair_40_n02791124_1137.JPEG
alexnet,3,294,NaN,chair,chair,bw,2854_cl_dnn_bw_chair_40_n04099969_5190.JPEG
alexnet,3,295,NaN,chair,chair,bw,2855_cl_dnn_bw_chair_40_n04099969_3130.JPEG
alexnet,3,296,NaN,chair,chair,bw,2856_cl_dnn_bw_chair_40_n02791124_8954.JPEG
alexnet,3,297,NaN,chair,chair,bw,2857_cl_dnn_bw_chair_40_n02791124_4549.JPEG
alexnet,3,298,NaN,chair,chair,bw,2858_cl_dnn_bw_chair_40_n02791124_3281.JPEG
alexnet,3,299,NaN,chair,chair,bw,2859_cl_dnn_bw_chair_40_n03376595_1810.JPEG
alexnet,3,300,NaN,chair,chair,bw,2860_cl_dnn_bw_chair_40_n04099969_12793.JPEG
alexnet,3,301,NaN,chair,chair,bw,2861_cl_dnn_bw_chair_40_n04099969_3471.JPEG
alexnet,3,302,NaN,chair,chair,bw,2862_cl_dnn_bw_chair_40_n04429376_16370.JPEG
alexnet,3,303,NaN,chair,chair,bw,2863_cl_dnn_bw_chair_40_n02791124_10186.JPEG
alexnet,3,304,NaN,chair,chair,bw,2864_cl_dnn_bw_chair_40_n04429376_8355.JPEG
alexnet,3,305,NaN,chair,chair,bw,2865_cl_dnn_bw_chair_40_n04429376_3845.JPEG
alexnet,3,306,NaN,chair,chair,bw,2866_cl_dnn_bw_chair_40_n03376595_8647.JPEG
alexnet,3,307,NaN,chair,chair,bw,2867_cl_dnn_bw_chair_40_n04099969_24235.JPEG
alexnet,3,308,NaN,chair,chair,bw,2868_cl_dnn_bw_chair_40_n02791124_7330.JPEG
alexnet,3,309,NaN,chair,chair,bw,2869_cl_dnn_bw_chair_40_n02791124_6399.JPEG
alexnet,3,310,NaN,chair,chair,bw,2870_cl_dnn_bw_chair_40_n04099969_1075.JPEG
alexnet,3,311,NaN,chair,chair,bw,2871_cl_dnn_bw_chair_40_n04429376_694.JPEG
alexnet,3,312,NaN,chair,chair,bw,2872_cl_dnn_bw_chair_40_n03376595_12960.JPEG
alexnet,3,313,NaN,chair,chair,bw,2873_cl_dnn_bw_chair_40_n04429376_7593.JPEG
alexnet,3,314,NaN,chair,chair,bw,2874_cl_dnn_bw_chair_40_n02791124_16062.JPEG
alexnet,3,315,NaN,chair,chair,bw,2875_cl_dnn_bw_chair_40_n04099969_15676.JPEG
alexnet,3,316,NaN,chair,chair,bw,2876_cl_dnn_bw_chair_40_n04429376_21773.JPEG
alexnet,3,317,NaN,chair,chair,bw,2877_cl_dnn_bw_chair_40_n04099969_4146.JPEG
alexnet,3,318,NaN,chair,chair,bw,2878_cl_dnn_bw_chair_40_n02791124_3923.JPEG
alexnet,3,319,NaN,chair,chair,bw,2879_cl_dnn_bw_chair_40_n04099969_6546.JPEG
alexnet,3,320,NaN,chair,chair,bw,2880_cl_dnn_bw_chair_40_n02791124_4432.JPEG
alexnet,3,321,NaN,bear,bear,bw,2881_cl_dnn_bw_bear_40_n02134418_264.JPEG
alexnet,3,322,NaN,bear,bear,bw,2882_cl_dnn_bw_bear_40_n02134418_1642.JPEG
alexnet,3,323,NaN,bear,bear,bw,2883_cl_dnn_bw_bear_40_n02132136_239.JPEG
alexnet,3,324,NaN,bear,bear,bw,2884_cl_dnn_bw_bear_40_n02134418_193.JPEG
alexnet,3,325,NaN,bear,bear,bw,2885_cl_dnn_bw_bear_40_n02134418_2019.JPEG
alexnet,3,326,NaN,bear,bear,bw,2886_cl_dnn_bw_bear_40_n02133161_11301.JPEG
alexnet,3,327,NaN,bear,bear,bw,2887_cl_dnn_bw_bear_40_n02132136_13440.JPEG
alexnet,3,328,NaN,bear,bear,bw,2888_cl_dnn_bw_bear_40_n02132136_2404.JPEG
alexnet,3,329,NaN,dog,bear,bw,2889_cl_dnn_bw_bear_40_n02133161_473.JPEG
alexnet,3,330,NaN,bear,bear,bw,2890_cl_dnn_bw_bear_40_n02133161_223.JPEG
alexnet,3,331,NaN,bear,bear,bw,2891_cl_dnn_bw_bear_40_n02134084_14908.JPEG
alexnet,3,332,NaN,dog,bear,bw,2892_cl_dnn_bw_bear_40_n02134084_134.JPEG
alexnet,3,333,NaN,dog,bear,bw,2893_cl_dnn_bw_bear_40_n02134084_4898.JPEG
alexnet,3,334,NaN,bear,bear,bw,2894_cl_dnn_bw_bear_40_n02133161_7055.JPEG
alexnet,3,335,NaN,dog,bear,bw,2895_cl_dnn_bw_bear_40_n02134084_15132.JPEG
alexnet,3,336,NaN,bear,bear,bw,2896_cl_dnn_bw_bear_40_n02133161_9424.JPEG
alexnet,3,337,NaN,bear,bear,bw,2897_cl_dnn_bw_bear_40_n02134084_34170.JPEG
alexnet,3,338,NaN,dog,bear,bw,2898_cl_dnn_bw_bear_40_n02133161_3550.JPEG
alexnet,3,339,NaN,dog,bear,bw,2899_cl_dnn_bw_bear_40_n02134084_7171.JPEG
alexnet,3,340,NaN,bear,bear,bw,2900_cl_dnn_bw_bear_40_n02134418_1245.JPEG
alexnet,3,341,NaN,dog,bear,bw,2901_cl_dnn_bw_bear_40_n02133161_15585.JPEG
alexnet,3,342,NaN,bear,bear,bw,2902_cl_dnn_bw_bear_40_n02134418_10576.JPEG
alexnet,3,343,NaN,bear,bear,bw,2903_cl_dnn_bw_bear_40_n02133161_4225.JPEG
alexnet,3,344,NaN,bear,bear,bw,2904_cl_dnn_bw_bear_40_n02134084_22074.JPEG
alexnet,3,345,NaN,bear,bear,bw,2905_cl_dnn_bw_bear_40_n02134084_6873.JPEG
alexnet,3,346,NaN,dog,bear,bw,2906_cl_dnn_bw_bear_40_n02133161_2191.JPEG
alexnet,3,347,NaN,bear,bear,bw,2907_cl_dnn_bw_bear_40_n02134084_6868.JPEG
alexnet,3,348,NaN,bear,bear,bw,2908_cl_dnn_bw_bear_40_n02132136_10603.JPEG
alexnet,3,349,NaN,bear,bear,bw,2909_cl_dnn_bw_bear_40_n02132136_7199.JPEG
alexnet,3,350,NaN,dog,bear,bw,2910_cl_dnn_bw_bear_40_n02132136_1558.JPEG
alexnet,3,351,NaN,dog,bear,bw,2911_cl_dnn_bw_bear_40_n02132136_2304.JPEG
alexnet,3,352,NaN,bird,bear,bw,2912_cl_dnn_bw_bear_40_n02134418_17.JPEG
alexnet,3,353,NaN,bear,bear,bw,2913_cl_dnn_bw_bear_40_n02134084_6940.JPEG
alexnet,3,354,NaN,dog,bear,bw,2914_cl_dnn_bw_bear_40_n02134418_1746.JPEG
alexnet,3,355,NaN,bear,bear,bw,2915_cl_dnn_bw_bear_40_n02132136_8017.JPEG
alexnet,3,356,NaN,dog,bear,bw,2916_cl_dnn_bw_bear_40_n02132136_258.JPEG
alexnet,3,357,NaN,bear,bear,bw,2917_cl_dnn_bw_bear_40_n02132136_9384.JPEG
alexnet,3,358,NaN,bear,bear,bw,2918_cl_dnn_bw_bear_40_n02134418_1820.JPEG
alexnet,3,359,NaN,bear,bear,bw,2919_cl_dnn_bw_bear_40_n02133161_15847.JPEG
alexnet,3,360,NaN,bear,bear,bw,2920_cl_dnn_bw_bear_40_n02134084_5435.JPEG
alexnet,3,361,NaN,boat,boat,bw,2921_cl_dnn_bw_boat_40_n02951358_4128.JPEG
alexnet,3,362,NaN,boat,boat,bw,2922_cl_dnn_bw_boat_40_n03344393_2977.JPEG
alexnet,3,363,NaN,boat,boat,bw,2923_cl_dnn_bw_boat_40_n04612504_38381.JPEG
alexnet,3,364,NaN,boat,boat,bw,2924_cl_dnn_bw_boat_40_n04273569_111.JPEG
alexnet,3,365,NaN,boat,boat,bw,2925_cl_dnn_bw_boat_40_n03662601_2577.JPEG
alexnet,3,366,NaN,boat,boat,bw,2926_cl_dnn_bw_boat_40_n03662601_25969.JPEG
alexnet,3,367,NaN,boat,boat,bw,2927_cl_dnn_bw_boat_40_n03344393_5273.JPEG
alexnet,3,368,NaN,boat,boat,bw,2928_cl_dnn_bw_boat_40_n02951358_32651.JPEG
alexnet,3,369,NaN,boat,boat,bw,2929_cl_dnn_bw_boat_40_n03662601_23555.JPEG
alexnet,3,370,NaN,boat,boat,bw,2930_cl_dnn_bw_boat_40_n04273569_15043.JPEG
alexnet,3,371,NaN,boat,boat,bw,2931_cl_dnn_bw_boat_40_n02951358_16134.JPEG
alexnet,3,372,NaN,boat,boat,bw,2932_cl_dnn_bw_boat_40_n04273569_4586.JPEG
alexnet,3,373,NaN,airplane,boat,bw,2933_cl_dnn_bw_boat_40_n04273569_7262.JPEG
alexnet,3,374,NaN,boat,boat,bw,2934_cl_dnn_bw_boat_40_n02951358_31811.JPEG
alexnet,3,375,NaN,boat,boat,bw,2935_cl_dnn_bw_boat_40_n03662601_4184.JPEG
alexnet,3,376,NaN,boat,boat,bw,2936_cl_dnn_bw_boat_40_n04612504_15254.JPEG
alexnet,3,377,NaN,boat,boat,bw,2937_cl_dnn_bw_boat_40_n04612504_21974.JPEG
alexnet,3,378,NaN,boat,boat,bw,2938_cl_dnn_bw_boat_40_n03344393_5024.JPEG
alexnet,3,379,NaN,chair,boat,bw,2939_cl_dnn_bw_boat_40_n04273569_25372.JPEG
alexnet,3,380,NaN,boat,boat,bw,2940_cl_dnn_bw_boat_40_n04612504_12130.JPEG
alexnet,3,381,NaN,boat,boat,bw,2941_cl_dnn_bw_boat_40_n02951358_343.JPEG
alexnet,3,382,NaN,airplane,boat,bw,2942_cl_dnn_bw_boat_40_n03344393_3325.JPEG
alexnet,3,383,NaN,boat,boat,bw,2943_cl_dnn_bw_boat_40_n03662601_4486.JPEG
alexnet,3,384,NaN,boat,boat,bw,2944_cl_dnn_bw_boat_40_n03662601_5866.JPEG
alexnet,3,385,NaN,boat,boat,bw,2945_cl_dnn_bw_boat_40_n03662601_22033.JPEG
alexnet,3,386,NaN,boat,boat,bw,2946_cl_dnn_bw_boat_40_n04612504_30766.JPEG
alexnet,3,387,NaN,boat,boat,bw,2947_cl_dnn_bw_boat_40_n03344393_3237.JPEG
alexnet,3,388,NaN,boat,boat,bw,2948_cl_dnn_bw_boat_40_n02951358_7944.JPEG
alexnet,3,389,NaN,boat,boat,bw,2949_cl_dnn_bw_boat_40_n02951358_15551.JPEG
alexnet,3,390,NaN,boat,boat,bw,2950_cl_dnn_bw_boat_40_n03344393_3699.JPEG
alexnet,3,391,NaN,boat,boat,bw,2951_cl_dnn_bw_boat_40_n04612504_1490.JPEG
alexnet,3,392,NaN,truck,boat,bw,2952_cl_dnn_bw_boat_40_n02951358_7531.JPEG
alexnet,3,393,NaN,airplane,boat,bw,2953_cl_dnn_bw_boat_40_n03662601_5075.JPEG
alexnet,3,394,NaN,dog,boat,bw,2954_cl_dnn_bw_boat_40_n04612504_36314.JPEG
alexnet,3,395,NaN,boat,boat,bw,2955_cl_dnn_bw_boat_40_n04612504_13520.JPEG
alexnet,3,396,NaN,boat,boat,bw,2956_cl_dnn_bw_boat_40_n04273569_3217.JPEG
alexnet,3,397,NaN,boat,boat,bw,2957_cl_dnn_bw_boat_40_n03662601_22726.JPEG
alexnet,3,398,NaN,boat,boat,bw,2958_cl_dnn_bw_boat_40_n04612504_13811.JPEG
alexnet,3,399,NaN,boat,boat,bw,2959_cl_dnn_bw_boat_40_n03344393_10023.JPEG
alexnet,3,400,NaN,boat,boat,bw,2960_cl_dnn_bw_boat_40_n02951358_30504.JPEG
alexnet,3,401,NaN,cat,cat,bw,2961_cl_dnn_bw_cat_40_n02123045_624.JPEG
alexnet,3,402,NaN,chair,cat,bw,2962_cl_dnn_bw_cat_40_n02123159_2804.JPEG
alexnet,3,403,NaN,cat,cat,bw,2963_cl_dnn_bw_cat_40_n02124075_843.JPEG
alexnet,3,404,NaN,cat,cat,bw,2964_cl_dnn_bw_cat_40_n02124075_12959.JPEG
alexnet,3,405,NaN,cat,cat,bw,2965_cl_dnn_bw_cat_40_n02123597_2215.JPEG
alexnet,3,406,NaN,cat,cat,bw,2966_cl_dnn_bw_cat_40_n02123045_4279.JPEG
alexnet,3,407,NaN,cat,cat,bw,2967_cl_dnn_bw_cat_40_n02123045_1417.JPEG
alexnet,3,408,NaN,cat,cat,bw,2968_cl_dnn_bw_cat_40_n02123597_7880.JPEG
alexnet,3,409,NaN,cat,cat,bw,2969_cl_dnn_bw_cat_40_n02124075_8833.JPEG
alexnet,3,410,NaN,cat,cat,bw,2970_cl_dnn_bw_cat_40_n02123394_7882.JPEG
alexnet,3,411,NaN,cat,cat,bw,2971_cl_dnn_bw_cat_40_n02124075_13594.JPEG
alexnet,3,412,NaN,cat,cat,bw,2972_cl_dnn_bw_cat_40_n02123597_12157.JPEG
alexnet,3,413,NaN,cat,cat,bw,2973_cl_dnn_bw_cat_40_n02123159_7972.JPEG
alexnet,3,414,NaN,cat,cat,bw,2974_cl_dnn_bw_cat_40_n02123597_5081.JPEG
alexnet,3,415,NaN,dog,cat,bw,2975_cl_dnn_bw_cat_40_n02124075_7068.JPEG
alexnet,3,416,NaN,cat,cat,bw,2976_cl_dnn_bw_cat_40_n02123045_1113.JPEG
alexnet,3,417,NaN,cat,cat,bw,2977_cl_dnn_bw_cat_40_n02124075_2565.JPEG
alexnet,3,418,NaN,cat,cat,bw,2978_cl_dnn_bw_cat_40_n02125311_25431.JPEG
alexnet,3,419,NaN,cat,cat,bw,2979_cl_dnn_bw_cat_40_n02123394_2357.JPEG
alexnet,3,420,NaN,cat,cat,bw,2980_cl_dnn_bw_cat_40_n02123159_1968.JPEG
alexnet,3,421,NaN,cat,cat,bw,2981_cl_dnn_bw_cat_40_n02123394_2726.JPEG
alexnet,3,422,NaN,dog,cat,bw,2982_cl_dnn_bw_cat_40_n02125311_50622.JPEG
alexnet,3,423,NaN,cat,cat,bw,2983_cl_dnn_bw_cat_40_n02123597_12112.JPEG
alexnet,3,424,NaN,cat,cat,bw,2984_cl_dnn_bw_cat_40_n02123045_2598.JPEG
alexnet,3,425,NaN,cat,cat,bw,2985_cl_dnn_bw_cat_40_n02123394_8704.JPEG
alexnet,3,426,NaN,cat,cat,bw,2986_cl_dnn_bw_cat_40_n02123597_274.JPEG
alexnet,3,427,NaN,cat,cat,bw,2987_cl_dnn_bw_cat_40_n02125311_58059.JPEG
alexnet,3,428,NaN,cat,cat,bw,2988_cl_dnn_bw_cat_40_n02124075_5867.JPEG
alexnet,3,429,NaN,cat,cat,bw,2989_cl_dnn_bw_cat_40_n02123045_4960.JPEG
alexnet,3,430,NaN,dog,cat,bw,2990_cl_dnn_bw_cat_40_n02124075_754.JPEG
alexnet,3,431,NaN,dog,cat,bw,2991_cl_dnn_bw_cat_40_n02125311_36957.JPEG
alexnet,3,432,NaN,cat,cat,bw,2992_cl_dnn_bw_cat_40_n02124075_2113.JPEG
alexnet,3,433,NaN,cat,cat,bw,2993_cl_dnn_bw_cat_40_n02125311_46546.JPEG
alexnet,3,434,NaN,cat,cat,bw,2994_cl_dnn_bw_cat_40_n02125311_28114.JPEG
alexnet,3,435,NaN,cat,cat,bw,2995_cl_dnn_bw_cat_40_n02123394_2699.JPEG
alexnet,3,436,NaN,cat,cat,bw,2996_cl_dnn_bw_cat_40_n02123045_15646.JPEG
alexnet,3,437,NaN,cat,cat,bw,2997_cl_dnn_bw_cat_40_n02123159_7713.JPEG
alexnet,3,438,NaN,cat,cat,bw,2998_cl_dnn_bw_cat_40_n02123045_8648.JPEG
alexnet,3,439,NaN,bear,cat,bw,2999_cl_dnn_bw_cat_40_n02125311_16226.JPEG
alexnet,3,440,NaN,cat,cat,bw,3000_cl_dnn_bw_cat_40_n02123394_8240.JPEG
alexnet,3,441,NaN,bottle,bottle,bw,3001_cl_dnn_bw_bottle_40_n04560804_564.JPEG
alexnet,3,442,NaN,bicycle,bottle,bw,3002_cl_dnn_bw_bottle_40_n03937543_5657.JPEG
alexnet,3,443,NaN,bottle,bottle,bw,3003_cl_dnn_bw_bottle_40_n03983396_11256.JPEG
alexnet,3,444,NaN,bottle,bottle,bw,3004_cl_dnn_bw_bottle_40_n04591713_5609.JPEG
alexnet,3,445,NaN,bottle,bottle,bw,3005_cl_dnn_bw_bottle_40_n04579145_106.JPEG
alexnet,3,446,NaN,bottle,bottle,bw,3006_cl_dnn_bw_bottle_40_n03937543_10861.JPEG
alexnet,3,447,NaN,bottle,bottle,bw,3007_cl_dnn_bw_bottle_40_n02823428_8062.JPEG
alexnet,3,448,NaN,bottle,bottle,bw,3008_cl_dnn_bw_bottle_40_n04560804_570.JPEG
alexnet,3,449,NaN,bottle,bottle,bw,3009_cl_dnn_bw_bottle_40_n04591713_1905.JPEG
alexnet,3,450,NaN,clock,bottle,bw,3010_cl_dnn_bw_bottle_40_n03937543_10624.JPEG
alexnet,3,451,NaN,clock,bottle,bw,3011_cl_dnn_bw_bottle_40_n02823428_4840.JPEG
alexnet,3,452,NaN,bottle,bottle,bw,3012_cl_dnn_bw_bottle_40_n03937543_1970.JPEG
alexnet,3,453,NaN,bottle,bottle,bw,3013_cl_dnn_bw_bottle_40_n04560804_1860.JPEG
alexnet,3,454,NaN,bottle,bottle,bw,3014_cl_dnn_bw_bottle_40_n04591713_2525.JPEG
alexnet,3,455,NaN,chair,bottle,bw,3015_cl_dnn_bw_bottle_40_n03937543_1946.JPEG
alexnet,3,456,NaN,chair,bottle,bw,3016_cl_dnn_bw_bottle_40_n03983396_2288.JPEG
alexnet,3,457,NaN,bottle,bottle,bw,3017_cl_dnn_bw_bottle_40_n04560804_9614.JPEG
alexnet,3,458,NaN,bottle,bottle,bw,3018_cl_dnn_bw_bottle_40_n04560804_8845.JPEG
alexnet,3,459,NaN,bottle,bottle,bw,3019_cl_dnn_bw_bottle_40_n04557648_5458.JPEG
alexnet,3,460,NaN,bottle,bottle,bw,3020_cl_dnn_bw_bottle_40_n03983396_4682.JPEG
alexnet,3,461,NaN,bottle,bottle,bw,3021_cl_dnn_bw_bottle_40_n03983396_2064.JPEG
alexnet,3,462,NaN,bottle,bottle,bw,3022_cl_dnn_bw_bottle_40_n02823428_6014.JPEG
alexnet,3,463,NaN,bottle,bottle,bw,3023_cl_dnn_bw_bottle_40_n04560804_13955.JPEG
alexnet,3,464,NaN,bottle,bottle,bw,3024_cl_dnn_bw_bottle_40_n04560804_15414.JPEG
alexnet,3,465,NaN,bottle,bottle,bw,3025_cl_dnn_bw_bottle_40_n04557648_981.JPEG
alexnet,3,466,NaN,bottle,bottle,bw,3026_cl_dnn_bw_bottle_40_n04591713_1969.JPEG
alexnet,3,467,NaN,airplane,bottle,bw,3027_cl_dnn_bw_bottle_40_n04579145_4145.JPEG
alexnet,3,468,NaN,bottle,bottle,bw,3028_cl_dnn_bw_bottle_40_n04557648_9049.JPEG
alexnet,3,469,NaN,bottle,bottle,bw,3029_cl_dnn_bw_bottle_40_n04591713_3554.JPEG
alexnet,3,470,NaN,knife,bottle,bw,3030_cl_dnn_bw_bottle_40_n04591713_10569.JPEG
alexnet,3,471,NaN,bottle,bottle,bw,3031_cl_dnn_bw_bottle_40_n04557648_3334.JPEG
alexnet,3,472,NaN,bottle,bottle,bw,3032_cl_dnn_bw_bottle_40_n03937543_1705.JPEG
alexnet,3,473,NaN,bottle,bottle,bw,3033_cl_dnn_bw_bottle_40_n03983396_2128.JPEG
alexnet,3,474,NaN,bottle,bottle,bw,3034_cl_dnn_bw_bottle_40_n04557648_1938.JPEG
alexnet,3,475,NaN,bottle,bottle,bw,3035_cl_dnn_bw_bottle_40_n04591713_2032.JPEG
alexnet,3,476,NaN,knife,bottle,bw,3036_cl_dnn_bw_bottle_40_n04557648_8444.JPEG
alexnet,3,477,NaN,bottle,bottle,bw,3037_cl_dnn_bw_bottle_40_n04591713_1138.JPEG
alexnet,3,478,NaN,keyboard,bottle,bw,3038_cl_dnn_bw_bottle_40_n03983396_11715.JPEG
alexnet,3,479,NaN,bottle,bottle,bw,3039_cl_dnn_bw_bottle_40_n03937543_5896.JPEG
alexnet,3,480,NaN,bottle,bottle,bw,3040_cl_dnn_bw_bottle_40_n02823428_987.JPEG
alexnet,3,481,NaN,truck,truck,bw,3041_cl_dnn_bw_truck_40_n04467665_679.JPEG
alexnet,3,482,NaN,truck,truck,bw,3042_cl_dnn_bw_truck_40_n03417042_12908.JPEG
alexnet,3,483,NaN,truck,truck,bw,3043_cl_dnn_bw_truck_40_n04467665_15984.JPEG
alexnet,3,484,NaN,bird,truck,bw,3044_cl_dnn_bw_truck_40_n03417042_3857.JPEG
alexnet,3,485,NaN,truck,truck,bw,3045_cl_dnn_bw_truck_40_n03417042_14574.JPEG
alexnet,3,486,NaN,truck,truck,bw,3046_cl_dnn_bw_truck_40_n03417042_28519.JPEG
alexnet,3,487,NaN,truck,truck,bw,3047_cl_dnn_bw_truck_40_n03796401_23129.JPEG
alexnet,3,488,NaN,truck,truck,bw,3048_cl_dnn_bw_truck_40_n03417042_1376.JPEG
alexnet,3,489,NaN,truck,truck,bw,3049_cl_dnn_bw_truck_40_n03417042_8891.JPEG
alexnet,3,490,NaN,truck,truck,bw,3050_cl_dnn_bw_truck_40_n04467665_19232.JPEG
alexnet,3,491,NaN,truck,truck,bw,3051_cl_dnn_bw_truck_40_n03417042_9592.JPEG
alexnet,3,492,NaN,truck,truck,bw,3052_cl_dnn_bw_truck_40_n03417042_6654.JPEG
alexnet,3,493,NaN,truck,truck,bw,3053_cl_dnn_bw_truck_40_n03417042_5090.JPEG
alexnet,3,494,NaN,truck,truck,bw,3054_cl_dnn_bw_truck_40_n04467665_40361.JPEG
alexnet,3,495,NaN,truck,truck,bw,3055_cl_dnn_bw_truck_40_n03417042_18743.JPEG
alexnet,3,496,NaN,truck,truck,bw,3056_cl_dnn_bw_truck_40_n03796401_19845.JPEG
alexnet,3,497,NaN,truck,truck,bw,3057_cl_dnn_bw_truck_40_n03417042_6981.JPEG
alexnet,3,498,NaN,truck,truck,bw,3058_cl_dnn_bw_truck_40_n03796401_9642.JPEG
alexnet,3,499,NaN,truck,truck,bw,3059_cl_dnn_bw_truck_40_n04467665_810.JPEG
alexnet,3,500,NaN,truck,truck,bw,3060_cl_dnn_bw_truck_40_n03417042_2074.JPEG
alexnet,3,501,NaN,truck,truck,bw,3061_cl_dnn_bw_truck_40_n03417042_11964.JPEG
alexnet,3,502,NaN,truck,truck,bw,3062_cl_dnn_bw_truck_40_n03417042_5768.JPEG
alexnet,3,503,NaN,truck,truck,bw,3063_cl_dnn_bw_truck_40_n03796401_16425.JPEG
alexnet,3,504,NaN,truck,truck,bw,3064_cl_dnn_bw_truck_40_n03417042_5514.JPEG
alexnet,3,505,NaN,truck,truck,bw,3065_cl_dnn_bw_truck_40_n04467665_61362.JPEG
alexnet,3,506,NaN,truck,truck,bw,3066_cl_dnn_bw_truck_40_n03796401_29952.JPEG
alexnet,3,507,NaN,truck,truck,bw,3067_cl_dnn_bw_truck_40_n03796401_4120.JPEG
alexnet,3,508,NaN,truck,truck,bw,3068_cl_dnn_bw_truck_40_n03417042_22297.JPEG
alexnet,3,509,NaN,truck,truck,bw,3069_cl_dnn_bw_truck_40_n04467665_3298.JPEG
alexnet,3,510,NaN,truck,truck,bw,3070_cl_dnn_bw_truck_40_n03417042_12297.JPEG
alexnet,3,511,NaN,truck,truck,bw,3071_cl_dnn_bw_truck_40_n04467665_59458.JPEG
alexnet,3,512,NaN,truck,truck,bw,3072_cl_dnn_bw_truck_40_n04467665_3098.JPEG
alexnet,3,513,NaN,truck,truck,bw,3073_cl_dnn_bw_truck_40_n03417042_11446.JPEG
alexnet,3,514,NaN,truck,truck,bw,3074_cl_dnn_bw_truck_40_n04467665_34932.JPEG
alexnet,3,515,NaN,truck,truck,bw,3075_cl_dnn_bw_truck_40_n04467665_30588.JPEG
alexnet,3,516,NaN,truck,truck,bw,3076_cl_dnn_bw_truck_40_n04467665_2528.JPEG
alexnet,3,517,NaN,truck,truck,bw,3077_cl_dnn_bw_truck_40_n04467665_30023.JPEG
alexnet,3,518,NaN,truck,truck,bw,3078_cl_dnn_bw_truck_40_n04467665_8768.JPEG
alexnet,3,519,NaN,truck,truck,bw,3079_cl_dnn_bw_truck_40_n03796401_2447.JPEG
alexnet,3,520,NaN,truck,truck,bw,3080_cl_dnn_bw_truck_40_n03417042_176.JPEG
alexnet,3,521,NaN,car,car,bw,3081_cl_dnn_bw_car_40_n02814533_86761.JPEG
alexnet,3,522,NaN,car,car,bw,3082_cl_dnn_bw_car_40_n03100240_5281.JPEG
alexnet,3,523,NaN,car,car,bw,3083_cl_dnn_bw_car_40_n02814533_28847.JPEG
alexnet,3,524,NaN,car,car,bw,3084_cl_dnn_bw_car_40_n02814533_92286.JPEG
alexnet,3,525,NaN,car,car,bw,3085_cl_dnn_bw_car_40_n03100240_8489.JPEG
alexnet,3,526,NaN,car,car,bw,3086_cl_dnn_bw_car_40_n03100240_5724.JPEG
alexnet,3,527,NaN,car,car,bw,3087_cl_dnn_bw_car_40_n04285008_7694.JPEG
alexnet,3,528,NaN,truck,car,bw,3088_cl_dnn_bw_car_40_n03100240_14436.JPEG
alexnet,3,529,NaN,car,car,bw,3089_cl_dnn_bw_car_40_n03100240_22344.JPEG
alexnet,3,530,NaN,car,car,bw,3090_cl_dnn_bw_car_40_n04285008_3422.JPEG
alexnet,3,531,NaN,car,car,bw,3091_cl_dnn_bw_car_40_n04285008_9375.JPEG
alexnet,3,532,NaN,car,car,bw,3092_cl_dnn_bw_car_40_n03100240_5432.JPEG
alexnet,3,533,NaN,car,car,bw,3093_cl_dnn_bw_car_40_n03100240_11417.JPEG
alexnet,3,534,NaN,car,car,bw,3094_cl_dnn_bw_car_40_n03100240_18984.JPEG
alexnet,3,535,NaN,car,car,bw,3095_cl_dnn_bw_car_40_n03100240_13498.JPEG
alexnet,3,536,NaN,car,car,bw,3096_cl_dnn_bw_car_40_n03100240_14239.JPEG
alexnet,3,537,NaN,car,car,bw,3097_cl_dnn_bw_car_40_n03100240_17587.JPEG
alexnet,3,538,NaN,car,car,bw,3098_cl_dnn_bw_car_40_n03100240_19010.JPEG
alexnet,3,539,NaN,car,car,bw,3099_cl_dnn_bw_car_40_n04285008_9860.JPEG
alexnet,3,540,NaN,car,car,bw,3100_cl_dnn_bw_car_40_n04285008_2314.JPEG
alexnet,3,541,NaN,car,car,bw,3101_cl_dnn_bw_car_40_n02814533_62992.JPEG
alexnet,3,542,NaN,car,car,bw,3102_cl_dnn_bw_car_40_n04285008_5749.JPEG
alexnet,3,543,NaN,car,car,bw,3103_cl_dnn_bw_car_40_n04285008_15570.JPEG
alexnet,3,544,NaN,car,car,bw,3104_cl_dnn_bw_car_40_n02814533_41282.JPEG
alexnet,3,545,NaN,car,car,bw,3105_cl_dnn_bw_car_40_n04285008_13470.JPEG
alexnet,3,546,NaN,car,car,bw,3106_cl_dnn_bw_car_40_n02814533_8695.JPEG
alexnet,3,547,NaN,car,car,bw,3107_cl_dnn_bw_car_40_n03100240_7452.JPEG
alexnet,3,548,NaN,car,car,bw,3108_cl_dnn_bw_car_40_n04285008_3038.JPEG
alexnet,3,549,NaN,car,car,bw,3109_cl_dnn_bw_car_40_n02814533_93487.JPEG
alexnet,3,550,NaN,car,car,bw,3110_cl_dnn_bw_car_40_n03100240_8862.JPEG
alexnet,3,551,NaN,car,car,bw,3111_cl_dnn_bw_car_40_n02814533_40178.JPEG
alexnet,3,552,NaN,car,car,bw,3112_cl_dnn_bw_car_40_n03100240_5709.JPEG
alexnet,3,553,NaN,car,car,bw,3113_cl_dnn_bw_car_40_n04285008_8363.JPEG
alexnet,3,554,NaN,car,car,bw,3114_cl_dnn_bw_car_40_n04285008_2411.JPEG
alexnet,3,555,NaN,car,car,bw,3115_cl_dnn_bw_car_40_n02814533_9360.JPEG
alexnet,3,556,NaN,car,car,bw,3116_cl_dnn_bw_car_40_n02814533_83215.JPEG
alexnet,3,557,NaN,car,car,bw,3117_cl_dnn_bw_car_40_n03100240_23195.JPEG
alexnet,3,558,NaN,car,car,bw,3118_cl_dnn_bw_car_40_n03100240_11623.JPEG
alexnet,3,559,NaN,car,car,bw,3119_cl_dnn_bw_car_40_n02814533_4282.JPEG
alexnet,3,560,NaN,car,car,bw,3120_cl_dnn_bw_car_40_n03100240_11867.JPEG
alexnet,3,561,NaN,bird,bird,bw,3121_cl_dnn_bw_bird_40_n01582220_8081.JPEG
alexnet,3,562,NaN,bird,bird,bw,3122_cl_dnn_bw_bird_40_n01531178_16809.JPEG
alexnet,3,563,NaN,dog,bird,bw,3123_cl_dnn_bw_bird_40_n02028035_6317.JPEG
alexnet,3,564,NaN,bird,bird,bw,3124_cl_dnn_bw_bird_40_n01824575_10552.JPEG
alexnet,3,565,NaN,bird,bird,bw,3125_cl_dnn_bw_bird_40_n01795545_6136.JPEG
alexnet,3,566,NaN,bird,bird,bw,3126_cl_dnn_bw_bird_40_n01531178_21145.JPEG
alexnet,3,567,NaN,dog,bird,bw,3127_cl_dnn_bw_bird_40_n01531178_7674.JPEG
alexnet,3,568,NaN,bird,bird,bw,3128_cl_dnn_bw_bird_40_n01622779_10971.JPEG
alexnet,3,569,NaN,bird,bird,bw,3129_cl_dnn_bw_bird_40_n02027492_7672.JPEG
alexnet,3,570,NaN,chair,bird,bw,3130_cl_dnn_bw_bird_40_n01614925_8260.JPEG
alexnet,3,571,NaN,bird,bird,bw,3131_cl_dnn_bw_bird_40_n01855032_4295.JPEG
alexnet,3,572,NaN,bird,bird,bw,3132_cl_dnn_bw_bird_40_n02009912_2937.JPEG
alexnet,3,573,NaN,bird,bird,bw,3133_cl_dnn_bw_bird_40_n02027492_2440.JPEG
alexnet,3,574,NaN,bird,bird,bw,3134_cl_dnn_bw_bird_40_n02018207_14777.JPEG
alexnet,3,575,NaN,bird,bird,bw,3135_cl_dnn_bw_bird_40_n01855032_1838.JPEG
alexnet,3,576,NaN,bird,bird,bw,3136_cl_dnn_bw_bird_40_n01560419_2777.JPEG
alexnet,3,577,NaN,bird,bird,bw,3137_cl_dnn_bw_bird_40_n02037110_1341.JPEG
alexnet,3,578,NaN,bird,bird,bw,3138_cl_dnn_bw_bird_40_n02051845_5641.JPEG
alexnet,3,579,NaN,oven,bird,bw,3139_cl_dnn_bw_bird_40_n01843383_12460.JPEG
alexnet,3,580,NaN,bird,bird,bw,3140_cl_dnn_bw_bird_40_n01592084_1094.JPEG
alexnet,3,581,NaN,bird,bird,bw,3141_cl_dnn_bw_bird_40_n01795545_5583.JPEG
alexnet,3,582,NaN,bird,bird,bw,3142_cl_dnn_bw_bird_40_n01824575_6959.JPEG
alexnet,3,583,NaN,bird,bird,bw,3143_cl_dnn_bw_bird_40_n02028035_82.JPEG
alexnet,3,584,NaN,bird,bird,bw,3144_cl_dnn_bw_bird_40_n01798484_14387.JPEG
alexnet,3,585,NaN,bird,bird,bw,3145_cl_dnn_bw_bird_40_n02033041_13304.JPEG
alexnet,3,586,NaN,bird,bird,bw,3146_cl_dnn_bw_bird_40_n02013706_3279.JPEG
alexnet,3,587,NaN,bird,bird,bw,3147_cl_dnn_bw_bird_40_n02017213_7860.JPEG
alexnet,3,588,NaN,bird,bird,bw,3148_cl_dnn_bw_bird_40_n01614925_2889.JPEG
alexnet,3,589,NaN,airplane,bird,bw,3149_cl_dnn_bw_bird_40_n02025239_12849.JPEG
alexnet,3,590,NaN,bird,bird,bw,3150_cl_dnn_bw_bird_40_n01592084_4379.JPEG
alexnet,3,591,NaN,bird,bird,bw,3151_cl_dnn_bw_bird_40_n02017213_16797.JPEG
alexnet,3,592,NaN,bird,bird,bw,3152_cl_dnn_bw_bird_40_n01843383_27680.JPEG
alexnet,3,593,NaN,bird,bird,bw,3153_cl_dnn_bw_bird_40_n01833805_1589.JPEG
alexnet,3,594,NaN,bird,bird,bw,3154_cl_dnn_bw_bird_40_n02018795_5247.JPEG
alexnet,3,595,NaN,bird,bird,bw,3155_cl_dnn_bw_bird_40_n01532829_1441.JPEG
alexnet,3,596,NaN,bird,bird,bw,3156_cl_dnn_bw_bird_40_n02051845_28863.JPEG
alexnet,3,597,NaN,bird,bird,bw,3157_cl_dnn_bw_bird_40_n02009912_652.JPEG
alexnet,3,598,NaN,bird,bird,bw,3158_cl_dnn_bw_bird_40_n01531178_18545.JPEG
alexnet,3,599,NaN,dog,bird,bw,3159_cl_dnn_bw_bird_40_n01534433_29423.JPEG
alexnet,3,600,NaN,bird,bird,bw,3160_cl_dnn_bw_bird_40_n02002724_406.JPEG
alexnet,3,601,NaN,dog,dog,bw,3161_cl_dnn_bw_dog_40_n02099267_16968.JPEG
alexnet,3,602,NaN,dog,dog,bw,3162_cl_dnn_bw_dog_40_n02096294_3842.JPEG
alexnet,3,603,NaN,dog,dog,bw,3163_cl_dnn_bw_dog_40_n02088094_3097.JPEG
alexnet,3,604,NaN,dog,dog,bw,3164_cl_dnn_bw_dog_40_n02099601_8854.JPEG
alexnet,3,605,NaN,dog,dog,bw,3165_cl_dnn_bw_dog_40_n02113023_6419.JPEG
alexnet,3,606,NaN,dog,dog,bw,3166_cl_dnn_bw_dog_40_n02105056_2073.JPEG
alexnet,3,607,NaN,dog,dog,bw,3167_cl_dnn_bw_dog_40_n02108422_5316.JPEG
alexnet,3,608,NaN,dog,dog,bw,3168_cl_dnn_bw_dog_40_n02110627_21946.JPEG
alexnet,3,609,NaN,dog,dog,bw,3169_cl_dnn_bw_dog_40_n02094114_727.JPEG
alexnet,3,610,NaN,dog,dog,bw,3170_cl_dnn_bw_dog_40_n02107574_5816.JPEG
alexnet,3,611,NaN,dog,dog,bw,3171_cl_dnn_bw_dog_40_n02093428_2134.JPEG
alexnet,3,612,NaN,dog,dog,bw,3172_cl_dnn_bw_dog_40_n02100877_4170.JPEG
alexnet,3,613,NaN,dog,dog,bw,3173_cl_dnn_bw_dog_40_n02094433_9556.JPEG
alexnet,3,614,NaN,dog,dog,bw,3174_cl_dnn_bw_dog_40_n02102177_4359.JPEG
alexnet,3,615,NaN,dog,dog,bw,3175_cl_dnn_bw_dog_40_n02090379_91.JPEG
alexnet,3,616,NaN,dog,dog,bw,3176_cl_dnn_bw_dog_40_n02087394_740.JPEG
alexnet,3,617,NaN,dog,dog,bw,3177_cl_dnn_bw_dog_40_n02110063_16763.JPEG
alexnet,3,618,NaN,dog,dog,bw,3178_cl_dnn_bw_dog_40_n02091244_8660.JPEG
alexnet,3,619,NaN,dog,dog,bw,3179_cl_dnn_bw_dog_40_n02102040_7486.JPEG
alexnet,3,620,NaN,dog,dog,bw,3180_cl_dnn_bw_dog_40_n02102040_1145.JPEG
alexnet,3,621,NaN,dog,dog,bw,3181_cl_dnn_bw_dog_40_n02095570_7314.JPEG
alexnet,3,622,NaN,dog,dog,bw,3182_cl_dnn_bw_dog_40_n02096585_1945.JPEG
alexnet,3,623,NaN,dog,dog,bw,3183_cl_dnn_bw_dog_40_n02085936_6843.JPEG
alexnet,3,624,NaN,dog,dog,bw,3184_cl_dnn_bw_dog_40_n02088238_1488.JPEG
alexnet,3,625,NaN,dog,dog,bw,3185_cl_dnn_bw_dog_40_n02113799_4726.JPEG
alexnet,3,626,NaN,dog,dog,bw,3186_cl_dnn_bw_dog_40_n02092002_6955.JPEG
alexnet,3,627,NaN,dog,dog,bw,3187_cl_dnn_bw_dog_40_n02088238_2386.JPEG
alexnet,3,628,NaN,dog,dog,bw,3188_cl_dnn_bw_dog_40_n02100877_19468.JPEG
alexnet,3,629,NaN,dog,dog,bw,3189_cl_dnn_bw_dog_40_n02093428_12387.JPEG
alexnet,3,630,NaN,dog,dog,bw,3190_cl_dnn_bw_dog_40_n02105855_7189.JPEG
alexnet,3,631,NaN,dog,dog,bw,3191_cl_dnn_bw_dog_40_n02112706_4553.JPEG
alexnet,3,632,NaN,dog,dog,bw,3192_cl_dnn_bw_dog_40_n02097658_2279.JPEG
alexnet,3,633,NaN,dog,dog,bw,3193_cl_dnn_bw_dog_40_n02113712_20220.JPEG
alexnet,3,634,NaN,dog,dog,bw,3194_cl_dnn_bw_dog_40_n02101006_3011.JPEG
alexnet,3,635,NaN,cat,dog,bw,3195_cl_dnn_bw_dog_40_n02089867_6538.JPEG
alexnet,3,636,NaN,dog,dog,bw,3196_cl_dnn_bw_dog_40_n02106662_48514.JPEG
alexnet,3,637,NaN,dog,dog,bw,3197_cl_dnn_bw_dog_40_n02096294_204.JPEG
alexnet,3,638,NaN,dog,dog,bw,3198_cl_dnn_bw_dog_40_n02086646_1223.JPEG
alexnet,3,639,NaN,dog,dog,bw,3199_cl_dnn_bw_dog_40_n02093991_9647.JPEG
alexnet,3,640,NaN,chair,dog,bw,3200_cl_dnn_bw_dog_40_n02101006_4264.JPEG
alexnet,3,641,NaN,knife,knife,cr,3201_cl_dnn_cr_knife_40_n03041632_22214.JPEG
alexnet,3,642,NaN,bird,knife,cr,3202_cl_dnn_cr_knife_40_n03041632_206.JPEG
alexnet,3,643,NaN,knife,knife,cr,3203_cl_dnn_cr_knife_40_n03041632_104379.JPEG
alexnet,3,644,NaN,knife,knife,cr,3204_cl_dnn_cr_knife_40_n03041632_4214.JPEG
alexnet,3,645,NaN,knife,knife,cr,3205_cl_dnn_cr_knife_40_n03041632_30801.JPEG
alexnet,3,646,NaN,knife,knife,cr,3206_cl_dnn_cr_knife_40_n03041632_992.JPEG
alexnet,3,647,NaN,knife,knife,cr,3207_cl_dnn_cr_knife_40_n03041632_13742.JPEG
alexnet,3,648,NaN,knife,knife,cr,3208_cl_dnn_cr_knife_40_n03041632_1661.JPEG
alexnet,3,649,NaN,knife,knife,cr,3209_cl_dnn_cr_knife_40_n03041632_10263.JPEG
alexnet,3,650,NaN,keyboard,knife,cr,3210_cl_dnn_cr_knife_40_n03041632_85488.JPEG
alexnet,3,651,NaN,airplane,knife,cr,3211_cl_dnn_cr_knife_40_n03041632_56436.JPEG
alexnet,3,652,NaN,knife,knife,cr,3212_cl_dnn_cr_knife_40_n03041632_53874.JPEG
alexnet,3,653,NaN,knife,knife,cr,3213_cl_dnn_cr_knife_40_n03041632_29355.JPEG
alexnet,3,654,NaN,knife,knife,cr,3214_cl_dnn_cr_knife_40_n03041632_33326.JPEG
alexnet,3,655,NaN,knife,knife,cr,3215_cl_dnn_cr_knife_40_n03041632_4590.JPEG
alexnet,3,656,NaN,knife,knife,cr,3216_cl_dnn_cr_knife_40_n03041632_29276.JPEG
alexnet,3,657,NaN,knife,knife,cr,3217_cl_dnn_cr_knife_40_n03041632_96361.JPEG
alexnet,3,658,NaN,knife,knife,cr,3218_cl_dnn_cr_knife_40_n03041632_2153.JPEG
alexnet,3,659,NaN,knife,knife,cr,3219_cl_dnn_cr_knife_40_n03041632_8540.JPEG
alexnet,3,660,NaN,knife,knife,cr,3220_cl_dnn_cr_knife_40_n03041632_91967.JPEG
alexnet,3,661,NaN,knife,knife,cr,3221_cl_dnn_cr_knife_40_n03041632_6557.JPEG
alexnet,3,662,NaN,knife,knife,cr,3222_cl_dnn_cr_knife_40_n03041632_20194.JPEG
alexnet,3,663,NaN,knife,knife,cr,3223_cl_dnn_cr_knife_40_n03041632_30196.JPEG
alexnet,3,664,NaN,knife,knife,cr,3224_cl_dnn_cr_knife_40_n03041632_5640.JPEG
alexnet,3,665,NaN,knife,knife,cr,3225_cl_dnn_cr_knife_40_n03041632_52702.JPEG
alexnet,3,666,NaN,knife,knife,cr,3226_cl_dnn_cr_knife_40_n03041632_29684.JPEG
alexnet,3,667,NaN,knife,knife,cr,3227_cl_dnn_cr_knife_40_n03041632_120.JPEG
alexnet,3,668,NaN,bird,knife,cr,3228_cl_dnn_cr_knife_40_n03041632_20595.JPEG
alexnet,3,669,NaN,chair,knife,cr,3229_cl_dnn_cr_knife_40_n03041632_32208.JPEG
alexnet,3,670,NaN,knife,knife,cr,3230_cl_dnn_cr_knife_40_n03041632_28201.JPEG
alexnet,3,671,NaN,dog,knife,cr,3231_cl_dnn_cr_knife_40_n03041632_4879.JPEG
alexnet,3,672,NaN,dog,knife,cr,3232_cl_dnn_cr_knife_40_n03041632_43289.JPEG
alexnet,3,673,NaN,knife,knife,cr,3233_cl_dnn_cr_knife_40_n03041632_24277.JPEG
alexnet,3,674,NaN,clock,knife,cr,3234_cl_dnn_cr_knife_40_n03041632_48149.JPEG
alexnet,3,675,NaN,knife,knife,cr,3235_cl_dnn_cr_knife_40_n03041632_24883.JPEG
alexnet,3,676,NaN,knife,knife,cr,3236_cl_dnn_cr_knife_40_n03041632_7173.JPEG
alexnet,3,677,NaN,knife,knife,cr,3237_cl_dnn_cr_knife_40_n03041632_737.JPEG
alexnet,3,678,NaN,knife,knife,cr,3238_cl_dnn_cr_knife_40_n03041632_8528.JPEG
alexnet,3,679,NaN,knife,knife,cr,3239_cl_dnn_cr_knife_40_n03041632_13645.JPEG
alexnet,3,680,NaN,chair,knife,cr,3240_cl_dnn_cr_knife_40_n03041632_30573.JPEG
alexnet,3,681,NaN,keyboard,keyboard,cr,3241_cl_dnn_cr_keyboard_40_n04505470_4452.JPEG
alexnet,3,682,NaN,dog,keyboard,cr,3242_cl_dnn_cr_keyboard_40_n03085013_25924.JPEG
alexnet,3,683,NaN,keyboard,keyboard,cr,3243_cl_dnn_cr_keyboard_40_n04505470_4479.JPEG
alexnet,3,684,NaN,keyboard,keyboard,cr,3244_cl_dnn_cr_keyboard_40_n04505470_2422.JPEG
alexnet,3,685,NaN,bottle,keyboard,cr,3245_cl_dnn_cr_keyboard_40_n03085013_24001.JPEG
alexnet,3,686,NaN,keyboard,keyboard,cr,3246_cl_dnn_cr_keyboard_40_n04505470_4603.JPEG
alexnet,3,687,NaN,keyboard,keyboard,cr,3247_cl_dnn_cr_keyboard_40_n03085013_19775.JPEG
alexnet,3,688,NaN,keyboard,keyboard,cr,3248_cl_dnn_cr_keyboard_40_n03085013_20996.JPEG
alexnet,3,689,NaN,keyboard,keyboard,cr,3249_cl_dnn_cr_keyboard_40_n03085013_3666.JPEG
alexnet,3,690,NaN,keyboard,keyboard,cr,3250_cl_dnn_cr_keyboard_40_n03085013_20925.JPEG
alexnet,3,691,NaN,keyboard,keyboard,cr,3251_cl_dnn_cr_keyboard_40_n04505470_2446.JPEG
alexnet,3,692,NaN,keyboard,keyboard,cr,3252_cl_dnn_cr_keyboard_40_n03085013_21558.JPEG
alexnet,3,693,NaN,keyboard,keyboard,cr,3253_cl_dnn_cr_keyboard_40_n03085013_23929.JPEG
alexnet,3,694,NaN,keyboard,keyboard,cr,3254_cl_dnn_cr_keyboard_40_n03085013_6904.JPEG
alexnet,3,695,NaN,keyboard,keyboard,cr,3255_cl_dnn_cr_keyboard_40_n04505470_4549.JPEG
alexnet,3,696,NaN,keyboard,keyboard,cr,3256_cl_dnn_cr_keyboard_40_n03085013_23865.JPEG
alexnet,3,697,NaN,keyboard,keyboard,cr,3257_cl_dnn_cr_keyboard_40_n03085013_6629.JPEG
alexnet,3,698,NaN,keyboard,keyboard,cr,3258_cl_dnn_cr_keyboard_40_n04505470_1117.JPEG
alexnet,3,699,NaN,keyboard,keyboard,cr,3259_cl_dnn_cr_keyboard_40_n03085013_21678.JPEG
alexnet,3,700,NaN,keyboard,keyboard,cr,3260_cl_dnn_cr_keyboard_40_n03085013_24436.JPEG
alexnet,3,701,NaN,keyboard,keyboard,cr,3261_cl_dnn_cr_keyboard_40_n03085013_23571.JPEG
alexnet,3,702,NaN,keyboard,keyboard,cr,3262_cl_dnn_cr_keyboard_40_n03085013_19497.JPEG
alexnet,3,703,NaN,keyboard,keyboard,cr,3263_cl_dnn_cr_keyboard_40_n04505470_1077.JPEG
alexnet,3,704,NaN,keyboard,keyboard,cr,3264_cl_dnn_cr_keyboard_40_n04505470_4925.JPEG
alexnet,3,705,NaN,keyboard,keyboard,cr,3265_cl_dnn_cr_keyboard_40_n04505470_279.JPEG
alexnet,3,706,NaN,keyboard,keyboard,cr,3266_cl_dnn_cr_keyboard_40_n03085013_23115.JPEG
alexnet,3,707,NaN,keyboard,keyboard,cr,3267_cl_dnn_cr_keyboard_40_n04505470_4704.JPEG
alexnet,3,708,NaN,keyboard,keyboard,cr,3268_cl_dnn_cr_keyboard_40_n03085013_19504.JPEG
alexnet,3,709,NaN,keyboard,keyboard,cr,3269_cl_dnn_cr_keyboard_40_n03085013_24519.JPEG
alexnet,3,710,NaN,keyboard,keyboard,cr,3270_cl_dnn_cr_keyboard_40_n03085013_2090.JPEG
alexnet,3,711,NaN,keyboard,keyboard,cr,3271_cl_dnn_cr_keyboard_40_n03085013_23763.JPEG
alexnet,3,712,NaN,keyboard,keyboard,cr,3272_cl_dnn_cr_keyboard_40_n03085013_19049.JPEG
alexnet,3,713,NaN,keyboard,keyboard,cr,3273_cl_dnn_cr_keyboard_40_n04505470_4844.JPEG
alexnet,3,714,NaN,keyboard,keyboard,cr,3274_cl_dnn_cr_keyboard_40_n04505470_4742.JPEG
alexnet,3,715,NaN,keyboard,keyboard,cr,3275_cl_dnn_cr_keyboard_40_n04505470_1721.JPEG
alexnet,3,716,NaN,keyboard,keyboard,cr,3276_cl_dnn_cr_keyboard_40_n04505470_5068.JPEG
alexnet,3,717,NaN,keyboard,keyboard,cr,3277_cl_dnn_cr_keyboard_40_n03085013_21155.JPEG
alexnet,3,718,NaN,keyboard,keyboard,cr,3278_cl_dnn_cr_keyboard_40_n04505470_3117.JPEG
alexnet,3,719,NaN,keyboard,keyboard,cr,3279_cl_dnn_cr_keyboard_40_n03085013_6069.JPEG
alexnet,3,720,NaN,keyboard,keyboard,cr,3280_cl_dnn_cr_keyboard_40_n04505470_1043.JPEG
alexnet,3,721,NaN,elephant,elephant,cr,3281_cl_dnn_cr_elephant_40_n02504458_5962.JPEG
alexnet,3,722,NaN,elephant,elephant,cr,3282_cl_dnn_cr_elephant_40_n02504013_7732.JPEG
alexnet,3,723,NaN,elephant,elephant,cr,3283_cl_dnn_cr_elephant_40_n02504013_7797.JPEG
alexnet,3,724,NaN,elephant,elephant,cr,3284_cl_dnn_cr_elephant_40_n02504013_9407.JPEG
alexnet,3,725,NaN,elephant,elephant,cr,3285_cl_dnn_cr_elephant_40_n02504013_476.JPEG
alexnet,3,726,NaN,elephant,elephant,cr,3286_cl_dnn_cr_elephant_40_n02504013_4560.JPEG
alexnet,3,727,NaN,elephant,elephant,cr,3287_cl_dnn_cr_elephant_40_n02504458_6368.JPEG
alexnet,3,728,NaN,elephant,elephant,cr,3288_cl_dnn_cr_elephant_40_n02504458_3525.JPEG
alexnet,3,729,NaN,elephant,elephant,cr,3289_cl_dnn_cr_elephant_40_n02504013_3745.JPEG
alexnet,3,730,NaN,elephant,elephant,cr,3290_cl_dnn_cr_elephant_40_n02504013_812.JPEG
alexnet,3,731,NaN,elephant,elephant,cr,3291_cl_dnn_cr_elephant_40_n02504013_7078.JPEG
alexnet,3,732,NaN,elephant,elephant,cr,3292_cl_dnn_cr_elephant_40_n02504013_632.JPEG
alexnet,3,733,NaN,elephant,elephant,cr,3293_cl_dnn_cr_elephant_40_n02504458_2524.JPEG
alexnet,3,734,NaN,elephant,elephant,cr,3294_cl_dnn_cr_elephant_40_n02504013_1758.JPEG
alexnet,3,735,NaN,elephant,elephant,cr,3295_cl_dnn_cr_elephant_40_n02504013_5757.JPEG
alexnet,3,736,NaN,elephant,elephant,cr,3296_cl_dnn_cr_elephant_40_n02504458_6736.JPEG
alexnet,3,737,NaN,elephant,elephant,cr,3297_cl_dnn_cr_elephant_40_n02504458_1241.JPEG
alexnet,3,738,NaN,elephant,elephant,cr,3298_cl_dnn_cr_elephant_40_n02504458_7818.JPEG
alexnet,3,739,NaN,elephant,elephant,cr,3299_cl_dnn_cr_elephant_40_n02504458_6799.JPEG
alexnet,3,740,NaN,elephant,elephant,cr,3300_cl_dnn_cr_elephant_40_n02504013_1882.JPEG
alexnet,3,741,NaN,elephant,elephant,cr,3301_cl_dnn_cr_elephant_40_n02504013_3141.JPEG
alexnet,3,742,NaN,elephant,elephant,cr,3302_cl_dnn_cr_elephant_40_n02504013_8391.JPEG
alexnet,3,743,NaN,elephant,elephant,cr,3303_cl_dnn_cr_elephant_40_n02504458_4463.JPEG
alexnet,3,744,NaN,elephant,elephant,cr,3304_cl_dnn_cr_elephant_40_n02504458_1998.JPEG
alexnet,3,745,NaN,elephant,elephant,cr,3305_cl_dnn_cr_elephant_40_n02504458_193.JPEG
alexnet,3,746,NaN,elephant,elephant,cr,3306_cl_dnn_cr_elephant_40_n02504013_26229.JPEG
alexnet,3,747,NaN,bird,elephant,cr,3307_cl_dnn_cr_elephant_40_n02504458_5816.JPEG
alexnet,3,748,NaN,elephant,elephant,cr,3308_cl_dnn_cr_elephant_40_n02504458_3878.JPEG
alexnet,3,749,NaN,elephant,elephant,cr,3309_cl_dnn_cr_elephant_40_n02504458_4580.JPEG
alexnet,3,750,NaN,elephant,elephant,cr,3310_cl_dnn_cr_elephant_40_n02504458_582.JPEG
alexnet,3,751,NaN,elephant,elephant,cr,3311_cl_dnn_cr_elephant_40_n02504458_7017.JPEG
alexnet,3,752,NaN,elephant,elephant,cr,3312_cl_dnn_cr_elephant_40_n02504013_3020.JPEG
alexnet,3,753,NaN,elephant,elephant,cr,3313_cl_dnn_cr_elephant_40_n02504013_9021.JPEG
alexnet,3,754,NaN,elephant,elephant,cr,3314_cl_dnn_cr_elephant_40_n02504458_10013.JPEG
alexnet,3,755,NaN,elephant,elephant,cr,3315_cl_dnn_cr_elephant_40_n02504458_209.JPEG
alexnet,3,756,NaN,elephant,elephant,cr,3316_cl_dnn_cr_elephant_40_n02504458_1233.JPEG
alexnet,3,757,NaN,elephant,elephant,cr,3317_cl_dnn_cr_elephant_40_n02504013_8218.JPEG
alexnet,3,758,NaN,elephant,elephant,cr,3318_cl_dnn_cr_elephant_40_n02504458_3261.JPEG
alexnet,3,759,NaN,elephant,elephant,cr,3319_cl_dnn_cr_elephant_40_n02504013_10154.JPEG
alexnet,3,760,NaN,elephant,elephant,cr,3320_cl_dnn_cr_elephant_40_n02504013_8385.JPEG
alexnet,3,761,NaN,bicycle,bicycle,cr,3321_cl_dnn_cr_bicycle_40_n03792782_63201.JPEG
alexnet,3,762,NaN,bicycle,bicycle,cr,3322_cl_dnn_cr_bicycle_40_n03792782_19590.JPEG
alexnet,3,763,NaN,bicycle,bicycle,cr,3323_cl_dnn_cr_bicycle_40_n03792782_32232.JPEG
alexnet,3,764,NaN,bicycle,bicycle,cr,3324_cl_dnn_cr_bicycle_40_n02835271_5113.JPEG
alexnet,3,765,NaN,bicycle,bicycle,cr,3325_cl_dnn_cr_bicycle_40_n03792782_13281.JPEG
alexnet,3,766,NaN,bicycle,bicycle,cr,3326_cl_dnn_cr_bicycle_40_n02835271_21636.JPEG
alexnet,3,767,NaN,bicycle,bicycle,cr,3327_cl_dnn_cr_bicycle_40_n03792782_14966.JPEG
alexnet,3,768,NaN,bicycle,bicycle,cr,3328_cl_dnn_cr_bicycle_40_n02835271_15087.JPEG
alexnet,3,769,NaN,bicycle,bicycle,cr,3329_cl_dnn_cr_bicycle_40_n03792782_4886.JPEG
alexnet,3,770,NaN,bicycle,bicycle,cr,3330_cl_dnn_cr_bicycle_40_n03792782_49733.JPEG
alexnet,3,771,NaN,bicycle,bicycle,cr,3331_cl_dnn_cr_bicycle_40_n03792782_28806.JPEG
alexnet,3,772,NaN,bicycle,bicycle,cr,3332_cl_dnn_cr_bicycle_40_n02835271_8034.JPEG
alexnet,3,773,NaN,boat,bicycle,cr,3333_cl_dnn_cr_bicycle_40_n02835271_11929.JPEG
alexnet,3,774,NaN,bicycle,bicycle,cr,3334_cl_dnn_cr_bicycle_40_n02835271_9306.JPEG
alexnet,3,775,NaN,bicycle,bicycle,cr,3335_cl_dnn_cr_bicycle_40_n03792782_8097.JPEG
alexnet,3,776,NaN,bicycle,bicycle,cr,3336_cl_dnn_cr_bicycle_40_n03792782_5578.JPEG
alexnet,3,777,NaN,bicycle,bicycle,cr,3337_cl_dnn_cr_bicycle_40_n03792782_7299.JPEG
alexnet,3,778,NaN,bicycle,bicycle,cr,3338_cl_dnn_cr_bicycle_40_n02835271_9237.JPEG
alexnet,3,779,NaN,bicycle,bicycle,cr,3339_cl_dnn_cr_bicycle_40_n02835271_12006.JPEG
alexnet,3,780,NaN,bicycle,bicycle,cr,3340_cl_dnn_cr_bicycle_40_n02835271_916.JPEG
alexnet,3,781,NaN,bicycle,bicycle,cr,3341_cl_dnn_cr_bicycle_40_n02835271_12263.JPEG
alexnet,3,782,NaN,bicycle,bicycle,cr,3342_cl_dnn_cr_bicycle_40_n03792782_65957.JPEG
alexnet,3,783,NaN,bicycle,bicycle,cr,3343_cl_dnn_cr_bicycle_40_n02835271_23680.JPEG
alexnet,3,784,NaN,bicycle,bicycle,cr,3344_cl_dnn_cr_bicycle_40_n03792782_18294.JPEG
alexnet,3,785,NaN,bicycle,bicycle,cr,3345_cl_dnn_cr_bicycle_40_n03792782_13508.JPEG
alexnet,3,786,NaN,bicycle,bicycle,cr,3346_cl_dnn_cr_bicycle_40_n02835271_8287.JPEG
alexnet,3,787,NaN,bicycle,bicycle,cr,3347_cl_dnn_cr_bicycle_40_n02835271_2163.JPEG
alexnet,3,788,NaN,bicycle,bicycle,cr,3348_cl_dnn_cr_bicycle_40_n03792782_2263.JPEG
alexnet,3,789,NaN,bicycle,bicycle,cr,3349_cl_dnn_cr_bicycle_40_n02835271_18038.JPEG
alexnet,3,790,NaN,bicycle,bicycle,cr,3350_cl_dnn_cr_bicycle_40_n02835271_8982.JPEG
alexnet,3,791,NaN,bicycle,bicycle,cr,3351_cl_dnn_cr_bicycle_40_n03792782_11959.JPEG
alexnet,3,792,NaN,bicycle,bicycle,cr,3352_cl_dnn_cr_bicycle_40_n02835271_790.JPEG
alexnet,3,793,NaN,chair,bicycle,cr,3353_cl_dnn_cr_bicycle_40_n02835271_8180.JPEG
alexnet,3,794,NaN,bicycle,bicycle,cr,3354_cl_dnn_cr_bicycle_40_n03792782_1222.JPEG
alexnet,3,795,NaN,bicycle,bicycle,cr,3355_cl_dnn_cr_bicycle_40_n03792782_2883.JPEG
alexnet,3,796,NaN,bicycle,bicycle,cr,3356_cl_dnn_cr_bicycle_40_n03792782_7634.JPEG
alexnet,3,797,NaN,bicycle,bicycle,cr,3357_cl_dnn_cr_bicycle_40_n03792782_11597.JPEG
alexnet,3,798,NaN,bicycle,bicycle,cr,3358_cl_dnn_cr_bicycle_40_n02835271_12097.JPEG
alexnet,3,799,NaN,bicycle,bicycle,cr,3359_cl_dnn_cr_bicycle_40_n02835271_8689.JPEG
alexnet,3,800,NaN,bicycle,bicycle,cr,3360_cl_dnn_cr_bicycle_40_n03792782_16599.JPEG
alexnet,3,801,NaN,airplane,airplane,cr,3361_cl_dnn_cr_airplane_40_n02690373_1696.JPEG
alexnet,3,802,NaN,airplane,airplane,cr,3362_cl_dnn_cr_airplane_40_n02690373_9946.JPEG
alexnet,3,803,NaN,airplane,airplane,cr,3363_cl_dnn_cr_airplane_40_n02690373_1171.JPEG
alexnet,3,804,NaN,airplane,airplane,cr,3364_cl_dnn_cr_airplane_40_n02690373_6319.JPEG
alexnet,3,805,NaN,airplane,airplane,cr,3365_cl_dnn_cr_airplane_40_n02690373_9760.JPEG
alexnet,3,806,NaN,airplane,airplane,cr,3366_cl_dnn_cr_airplane_40_n02690373_1161.JPEG
alexnet,3,807,NaN,airplane,airplane,cr,3367_cl_dnn_cr_airplane_40_n02690373_1087.JPEG
alexnet,3,808,NaN,airplane,airplane,cr,3368_cl_dnn_cr_airplane_40_n02690373_6891.JPEG
alexnet,3,809,NaN,airplane,airplane,cr,3369_cl_dnn_cr_airplane_40_n02690373_6845.JPEG
alexnet,3,810,NaN,airplane,airplane,cr,3370_cl_dnn_cr_airplane_40_n02690373_3970.JPEG
alexnet,3,811,NaN,airplane,airplane,cr,3371_cl_dnn_cr_airplane_40_n02690373_961.JPEG
alexnet,3,812,NaN,airplane,airplane,cr,3372_cl_dnn_cr_airplane_40_n02690373_4198.JPEG
alexnet,3,813,NaN,airplane,airplane,cr,3373_cl_dnn_cr_airplane_40_n02690373_2561.JPEG
alexnet,3,814,NaN,airplane,airplane,cr,3374_cl_dnn_cr_airplane_40_n02690373_4814.JPEG
alexnet,3,815,NaN,airplane,airplane,cr,3375_cl_dnn_cr_airplane_40_n02690373_7487.JPEG
alexnet,3,816,NaN,airplane,airplane,cr,3376_cl_dnn_cr_airplane_40_n02690373_9828.JPEG
alexnet,3,817,NaN,airplane,airplane,cr,3377_cl_dnn_cr_airplane_40_n02690373_1615.JPEG
alexnet,3,818,NaN,airplane,airplane,cr,3378_cl_dnn_cr_airplane_40_n02690373_2091.JPEG
alexnet,3,819,NaN,airplane,airplane,cr,3379_cl_dnn_cr_airplane_40_n02690373_6314.JPEG
alexnet,3,820,NaN,airplane,airplane,cr,3380_cl_dnn_cr_airplane_40_n02690373_7591.JPEG
alexnet,3,821,NaN,airplane,airplane,cr,3381_cl_dnn_cr_airplane_40_n02690373_2882.JPEG
alexnet,3,822,NaN,airplane,airplane,cr,3382_cl_dnn_cr_airplane_40_n02690373_4199.JPEG
alexnet,3,823,NaN,airplane,airplane,cr,3383_cl_dnn_cr_airplane_40_n02690373_9309.JPEG
alexnet,3,824,NaN,airplane,airplane,cr,3384_cl_dnn_cr_airplane_40_n02690373_15966.JPEG
alexnet,3,825,NaN,airplane,airplane,cr,3385_cl_dnn_cr_airplane_40_n02690373_4793.JPEG
alexnet,3,826,NaN,airplane,airplane,cr,3386_cl_dnn_cr_airplane_40_n02690373_5992.JPEG
alexnet,3,827,NaN,airplane,airplane,cr,3387_cl_dnn_cr_airplane_40_n02690373_7099.JPEG
alexnet,3,828,NaN,airplane,airplane,cr,3388_cl_dnn_cr_airplane_40_n02690373_4320.JPEG
alexnet,3,829,NaN,airplane,airplane,cr,3389_cl_dnn_cr_airplane_40_n02690373_6138.JPEG
alexnet,3,830,NaN,airplane,airplane,cr,3390_cl_dnn_cr_airplane_40_n02690373_10723.JPEG
alexnet,3,831,NaN,airplane,airplane,cr,3391_cl_dnn_cr_airplane_40_n02690373_9848.JPEG
alexnet,3,832,NaN,airplane,airplane,cr,3392_cl_dnn_cr_airplane_40_n02690373_6929.JPEG
alexnet,3,833,NaN,airplane,airplane,cr,3393_cl_dnn_cr_airplane_40_n02690373_5204.JPEG
alexnet,3,834,NaN,airplane,airplane,cr,3394_cl_dnn_cr_airplane_40_n02690373_3640.JPEG
alexnet,3,835,NaN,airplane,airplane,cr,3395_cl_dnn_cr_airplane_40_n02690373_6380.JPEG
alexnet,3,836,NaN,airplane,airplane,cr,3396_cl_dnn_cr_airplane_40_n02690373_8233.JPEG
alexnet,3,837,NaN,airplane,airplane,cr,3397_cl_dnn_cr_airplane_40_n02690373_5253.JPEG
alexnet,3,838,NaN,airplane,airplane,cr,3398_cl_dnn_cr_airplane_40_n02690373_7004.JPEG
alexnet,3,839,NaN,airplane,airplane,cr,3399_cl_dnn_cr_airplane_40_n02690373_7624.JPEG
alexnet,3,840,NaN,airplane,airplane,cr,3400_cl_dnn_cr_airplane_40_n02690373_5238.JPEG
alexnet,3,841,NaN,clock,clock,cr,3401_cl_dnn_cr_clock_40_n04548280_9965.JPEG
alexnet,3,842,NaN,clock,clock,cr,3402_cl_dnn_cr_clock_40_n04548280_5322.JPEG
alexnet,3,843,NaN,clock,clock,cr,3403_cl_dnn_cr_clock_40_n04548280_4302.JPEG
alexnet,3,844,NaN,clock,clock,cr,3404_cl_dnn_cr_clock_40_n02708093_420.JPEG
alexnet,3,845,NaN,clock,clock,cr,3405_cl_dnn_cr_clock_40_n02708093_118.JPEG
alexnet,3,846,NaN,clock,clock,cr,3406_cl_dnn_cr_clock_40_n02708093_2196.JPEG
alexnet,3,847,NaN,clock,clock,cr,3407_cl_dnn_cr_clock_40_n02708093_2823.JPEG
alexnet,3,848,NaN,clock,clock,cr,3408_cl_dnn_cr_clock_40_n03196217_1163.JPEG
alexnet,3,849,NaN,clock,clock,cr,3409_cl_dnn_cr_clock_40_n03196217_1566.JPEG
alexnet,3,850,NaN,clock,clock,cr,3410_cl_dnn_cr_clock_40_n04548280_9492.JPEG
alexnet,3,851,NaN,clock,clock,cr,3411_cl_dnn_cr_clock_40_n03196217_5627.JPEG
alexnet,3,852,NaN,clock,clock,cr,3412_cl_dnn_cr_clock_40_n02708093_870.JPEG
alexnet,3,853,NaN,clock,clock,cr,3413_cl_dnn_cr_clock_40_n02708093_2742.JPEG
alexnet,3,854,NaN,clock,clock,cr,3414_cl_dnn_cr_clock_40_n02708093_847.JPEG
alexnet,3,855,NaN,bottle,clock,cr,3415_cl_dnn_cr_clock_40_n02708093_2235.JPEG
alexnet,3,856,NaN,clock,clock,cr,3416_cl_dnn_cr_clock_40_n02708093_2180.JPEG
alexnet,3,857,NaN,clock,clock,cr,3417_cl_dnn_cr_clock_40_n02708093_6676.JPEG
alexnet,3,858,NaN,clock,clock,cr,3418_cl_dnn_cr_clock_40_n02708093_7060.JPEG
alexnet,3,859,NaN,clock,clock,cr,3419_cl_dnn_cr_clock_40_n04548280_1023.JPEG
alexnet,3,860,NaN,clock,clock,cr,3420_cl_dnn_cr_clock_40_n04548280_1230.JPEG
alexnet,3,861,NaN,clock,clock,cr,3421_cl_dnn_cr_clock_40_n02708093_459.JPEG
alexnet,3,862,NaN,clock,clock,cr,3422_cl_dnn_cr_clock_40_n03196217_1573.JPEG
alexnet,3,863,NaN,clock,clock,cr,3423_cl_dnn_cr_clock_40_n03196217_1021.JPEG
alexnet,3,864,NaN,clock,clock,cr,3424_cl_dnn_cr_clock_40_n02708093_2898.JPEG
alexnet,3,865,NaN,clock,clock,cr,3425_cl_dnn_cr_clock_40_n02708093_579.JPEG
alexnet,3,866,NaN,clock,clock,cr,3426_cl_dnn_cr_clock_40_n03196217_884.JPEG
alexnet,3,867,NaN,dog,clock,cr,3427_cl_dnn_cr_clock_40_n04548280_4229.JPEG
alexnet,3,868,NaN,clock,clock,cr,3428_cl_dnn_cr_clock_40_n03196217_5478.JPEG
alexnet,3,869,NaN,clock,clock,cr,3429_cl_dnn_cr_clock_40_n04548280_757.JPEG
alexnet,3,870,NaN,clock,clock,cr,3430_cl_dnn_cr_clock_40_n02708093_321.JPEG
alexnet,3,871,NaN,clock,clock,cr,3431_cl_dnn_cr_clock_40_n03196217_7026.JPEG
alexnet,3,872,NaN,clock,clock,cr,3432_cl_dnn_cr_clock_40_n03196217_11199.JPEG
alexnet,3,873,NaN,chair,clock,cr,3433_cl_dnn_cr_clock_40_n02708093_1300.JPEG
alexnet,3,874,NaN,clock,clock,cr,3434_cl_dnn_cr_clock_40_n03196217_1613.JPEG
alexnet,3,875,NaN,clock,clock,cr,3435_cl_dnn_cr_clock_40_n04548280_7568.JPEG
alexnet,3,876,NaN,clock,clock,cr,3436_cl_dnn_cr_clock_40_n02708093_3745.JPEG
alexnet,3,877,NaN,clock,clock,cr,3437_cl_dnn_cr_clock_40_n04548280_3208.JPEG
alexnet,3,878,NaN,clock,clock,cr,3438_cl_dnn_cr_clock_40_n02708093_2181.JPEG
alexnet,3,879,NaN,chair,clock,cr,3439_cl_dnn_cr_clock_40_n04548280_10291.JPEG
alexnet,3,880,NaN,clock,clock,cr,3440_cl_dnn_cr_clock_40_n02708093_8255.JPEG
alexnet,3,881,NaN,oven,oven,cr,3441_cl_dnn_cr_oven_40_n04111531_8681.JPEG
alexnet,3,882,NaN,oven,oven,cr,3442_cl_dnn_cr_oven_40_n04111531_13277.JPEG
alexnet,3,883,NaN,oven,oven,cr,3443_cl_dnn_cr_oven_40_n04111531_10664.JPEG
alexnet,3,884,NaN,oven,oven,cr,3444_cl_dnn_cr_oven_40_n04111531_16144.JPEG
alexnet,3,885,NaN,oven,oven,cr,3445_cl_dnn_cr_oven_40_n04111531_10199.JPEG
alexnet,3,886,NaN,oven,oven,cr,3446_cl_dnn_cr_oven_40_n04111531_1599.JPEG
alexnet,3,887,NaN,oven,oven,cr,3447_cl_dnn_cr_oven_40_n04111531_10884.JPEG
alexnet,3,888,NaN,oven,oven,cr,3448_cl_dnn_cr_oven_40_n04111531_9427.JPEG
alexnet,3,889,NaN,oven,oven,cr,3449_cl_dnn_cr_oven_40_n04111531_5218.JPEG
alexnet,3,890,NaN,oven,oven,cr,3450_cl_dnn_cr_oven_40_n04111531_9224.JPEG
alexnet,3,891,NaN,oven,oven,cr,3451_cl_dnn_cr_oven_40_n04111531_12729.JPEG
alexnet,3,892,NaN,oven,oven,cr,3452_cl_dnn_cr_oven_40_n04111531_8269.JPEG
alexnet,3,893,NaN,oven,oven,cr,3453_cl_dnn_cr_oven_40_n04111531_1992.JPEG
alexnet,3,894,NaN,oven,oven,cr,3454_cl_dnn_cr_oven_40_n04111531_9263.JPEG
alexnet,3,895,NaN,oven,oven,cr,3455_cl_dnn_cr_oven_40_n04111531_8255.JPEG
alexnet,3,896,NaN,dog,oven,cr,3456_cl_dnn_cr_oven_40_n04111531_9910.JPEG
alexnet,3,897,NaN,oven,oven,cr,3457_cl_dnn_cr_oven_40_n04111531_10077.JPEG
alexnet,3,898,NaN,oven,oven,cr,3458_cl_dnn_cr_oven_40_n04111531_4685.JPEG
alexnet,3,899,NaN,oven,oven,cr,3459_cl_dnn_cr_oven_40_n04111531_1050.JPEG
alexnet,3,900,NaN,chair,oven,cr,3460_cl_dnn_cr_oven_40_n04111531_1815.JPEG
alexnet,3,901,NaN,oven,oven,cr,3461_cl_dnn_cr_oven_40_n04111531_22563.JPEG
alexnet,3,902,NaN,oven,oven,cr,3462_cl_dnn_cr_oven_40_n04111531_2199.JPEG
alexnet,3,903,NaN,oven,oven,cr,3463_cl_dnn_cr_oven_40_n04111531_15667.JPEG
alexnet,3,904,NaN,oven,oven,cr,3464_cl_dnn_cr_oven_40_n04111531_2371.JPEG
alexnet,3,905,NaN,oven,oven,cr,3465_cl_dnn_cr_oven_40_n04111531_9781.JPEG
alexnet,3,906,NaN,oven,oven,cr,3466_cl_dnn_cr_oven_40_n04111531_5102.JPEG
alexnet,3,907,NaN,oven,oven,cr,3467_cl_dnn_cr_oven_40_n04111531_14329.JPEG
alexnet,3,908,NaN,oven,oven,cr,3468_cl_dnn_cr_oven_40_n04111531_9474.JPEG
alexnet,3,909,NaN,oven,oven,cr,3469_cl_dnn_cr_oven_40_n04111531_2091.JPEG
alexnet,3,910,NaN,oven,oven,cr,3470_cl_dnn_cr_oven_40_n04111531_4227.JPEG
alexnet,3,911,NaN,oven,oven,cr,3471_cl_dnn_cr_oven_40_n04111531_14951.JPEG
alexnet,3,912,NaN,oven,oven,cr,3472_cl_dnn_cr_oven_40_n04111531_5171.JPEG
alexnet,3,913,NaN,oven,oven,cr,3473_cl_dnn_cr_oven_40_n04111531_5756.JPEG
alexnet,3,914,NaN,oven,oven,cr,3474_cl_dnn_cr_oven_40_n04111531_9939.JPEG
alexnet,3,915,NaN,oven,oven,cr,3475_cl_dnn_cr_oven_40_n04111531_16795.JPEG
alexnet,3,916,NaN,oven,oven,cr,3476_cl_dnn_cr_oven_40_n04111531_21918.JPEG
alexnet,3,917,NaN,oven,oven,cr,3477_cl_dnn_cr_oven_40_n04111531_23068.JPEG
alexnet,3,918,NaN,oven,oven,cr,3478_cl_dnn_cr_oven_40_n04111531_5927.JPEG
alexnet,3,919,NaN,oven,oven,cr,3479_cl_dnn_cr_oven_40_n04111531_3270.JPEG
alexnet,3,920,NaN,oven,oven,cr,3480_cl_dnn_cr_oven_40_n04111531_2427.JPEG
alexnet,3,921,NaN,chair,chair,cr,3481_cl_dnn_cr_chair_40_n03376595_3199.JPEG
alexnet,3,922,NaN,chair,chair,cr,3482_cl_dnn_cr_chair_40_n04099969_8063.JPEG
alexnet,3,923,NaN,chair,chair,cr,3483_cl_dnn_cr_chair_40_n04099969_9918.JPEG
alexnet,3,924,NaN,chair,chair,cr,3484_cl_dnn_cr_chair_40_n04099969_7998.JPEG
alexnet,3,925,NaN,chair,chair,cr,3485_cl_dnn_cr_chair_40_n04429376_7425.JPEG
alexnet,3,926,NaN,chair,chair,cr,3486_cl_dnn_cr_chair_40_n04099969_7070.JPEG
alexnet,3,927,NaN,chair,chair,cr,3487_cl_dnn_cr_chair_40_n04099969_120.JPEG
alexnet,3,928,NaN,chair,chair,cr,3488_cl_dnn_cr_chair_40_n03376595_4748.JPEG
alexnet,3,929,NaN,chair,chair,cr,3489_cl_dnn_cr_chair_40_n04099969_8018.JPEG
alexnet,3,930,NaN,chair,chair,cr,3490_cl_dnn_cr_chair_40_n04429376_1954.JPEG
alexnet,3,931,NaN,chair,chair,cr,3491_cl_dnn_cr_chair_40_n03376595_6409.JPEG
alexnet,3,932,NaN,chair,chair,cr,3492_cl_dnn_cr_chair_40_n04429376_23089.JPEG
alexnet,3,933,NaN,chair,chair,cr,3493_cl_dnn_cr_chair_40_n02791124_5061.JPEG
alexnet,3,934,NaN,chair,chair,cr,3494_cl_dnn_cr_chair_40_n04099969_15406.JPEG
alexnet,3,935,NaN,chair,chair,cr,3495_cl_dnn_cr_chair_40_n03376595_2566.JPEG
alexnet,3,936,NaN,chair,chair,cr,3496_cl_dnn_cr_chair_40_n02791124_1959.JPEG
alexnet,3,937,NaN,chair,chair,cr,3497_cl_dnn_cr_chair_40_n03376595_7017.JPEG
alexnet,3,938,NaN,chair,chair,cr,3498_cl_dnn_cr_chair_40_n02791124_7490.JPEG
alexnet,3,939,NaN,chair,chair,cr,3499_cl_dnn_cr_chair_40_n04099969_19981.JPEG
alexnet,3,940,NaN,chair,chair,cr,3500_cl_dnn_cr_chair_40_n04429376_26608.JPEG
alexnet,3,941,NaN,chair,chair,cr,3501_cl_dnn_cr_chair_40_n02791124_5304.JPEG
alexnet,3,942,NaN,clock,chair,cr,3502_cl_dnn_cr_chair_40_n03376595_6759.JPEG
alexnet,3,943,NaN,chair,chair,cr,3503_cl_dnn_cr_chair_40_n02791124_3705.JPEG
alexnet,3,944,NaN,chair,chair,cr,3504_cl_dnn_cr_chair_40_n02791124_1870.JPEG
alexnet,3,945,NaN,chair,chair,cr,3505_cl_dnn_cr_chair_40_n03376595_209.JPEG
alexnet,3,946,NaN,chair,chair,cr,3506_cl_dnn_cr_chair_40_n02791124_8335.JPEG
alexnet,3,947,NaN,chair,chair,cr,3507_cl_dnn_cr_chair_40_n03376595_7959.JPEG
alexnet,3,948,NaN,chair,chair,cr,3508_cl_dnn_cr_chair_40_n04099969_52.JPEG
alexnet,3,949,NaN,chair,chair,cr,3509_cl_dnn_cr_chair_40_n04099969_16421.JPEG
alexnet,3,950,NaN,chair,chair,cr,3510_cl_dnn_cr_chair_40_n03376595_9482.JPEG
alexnet,3,951,NaN,chair,chair,cr,3511_cl_dnn_cr_chair_40_n02791124_5807.JPEG
alexnet,3,952,NaN,chair,chair,cr,3512_cl_dnn_cr_chair_40_n02791124_4334.JPEG
alexnet,3,953,NaN,chair,chair,cr,3513_cl_dnn_cr_chair_40_n02791124_696.JPEG
alexnet,3,954,NaN,chair,chair,cr,3514_cl_dnn_cr_chair_40_n04429376_7050.JPEG
alexnet,3,955,NaN,chair,chair,cr,3515_cl_dnn_cr_chair_40_n04429376_70.JPEG
alexnet,3,956,NaN,chair,chair,cr,3516_cl_dnn_cr_chair_40_n04429376_22381.JPEG
alexnet,3,957,NaN,chair,chair,cr,3517_cl_dnn_cr_chair_40_n04099969_2220.JPEG
alexnet,3,958,NaN,chair,chair,cr,3518_cl_dnn_cr_chair_40_n02791124_5287.JPEG
alexnet,3,959,NaN,chair,chair,cr,3519_cl_dnn_cr_chair_40_n03376595_5730.JPEG
alexnet,3,960,NaN,chair,chair,cr,3520_cl_dnn_cr_chair_40_n04429376_7621.JPEG
alexnet,3,961,NaN,bear,bear,cr,3521_cl_dnn_cr_bear_40_n02134418_2254.JPEG
alexnet,3,962,NaN,bear,bear,cr,3522_cl_dnn_cr_bear_40_n02134418_1742.JPEG
alexnet,3,963,NaN,bear,bear,cr,3523_cl_dnn_cr_bear_40_n02134084_6891.JPEG
alexnet,3,964,NaN,bear,bear,cr,3524_cl_dnn_cr_bear_40_n02132136_961.JPEG
alexnet,3,965,NaN,bear,bear,cr,3525_cl_dnn_cr_bear_40_n02133161_11329.JPEG
alexnet,3,966,NaN,bear,bear,cr,3526_cl_dnn_cr_bear_40_n02133161_13278.JPEG
alexnet,3,967,NaN,bear,bear,cr,3527_cl_dnn_cr_bear_40_n02133161_601.JPEG
alexnet,3,968,NaN,bear,bear,cr,3528_cl_dnn_cr_bear_40_n02134084_8731.JPEG
alexnet,3,969,NaN,bear,bear,cr,3529_cl_dnn_cr_bear_40_n02133161_3279.JPEG
alexnet,3,970,NaN,bear,bear,cr,3530_cl_dnn_cr_bear_40_n02133161_7085.JPEG
alexnet,3,971,NaN,bear,bear,cr,3531_cl_dnn_cr_bear_40_n02134418_768.JPEG
alexnet,3,972,NaN,bear,bear,cr,3532_cl_dnn_cr_bear_40_n02134084_16519.JPEG
alexnet,3,973,NaN,bear,bear,cr,3533_cl_dnn_cr_bear_40_n02133161_716.JPEG
alexnet,3,974,NaN,bear,bear,cr,3534_cl_dnn_cr_bear_40_n02134084_14809.JPEG
alexnet,3,975,NaN,bear,bear,cr,3535_cl_dnn_cr_bear_40_n02134084_17044.JPEG
alexnet,3,976,NaN,bear,bear,cr,3536_cl_dnn_cr_bear_40_n02134084_3697.JPEG
alexnet,3,977,NaN,bear,bear,cr,3537_cl_dnn_cr_bear_40_n02132136_9358.JPEG
alexnet,3,978,NaN,bear,bear,cr,3538_cl_dnn_cr_bear_40_n02134418_882.JPEG
alexnet,3,979,NaN,bird,bear,cr,3539_cl_dnn_cr_bear_40_n02134084_1400.JPEG
alexnet,3,980,NaN,bear,bear,cr,3540_cl_dnn_cr_bear_40_n02134084_14168.JPEG
alexnet,3,981,NaN,bear,bear,cr,3541_cl_dnn_cr_bear_40_n02134418_1882.JPEG
alexnet,3,982,NaN,elephant,bear,cr,3542_cl_dnn_cr_bear_40_n02134084_7521.JPEG
alexnet,3,983,NaN,dog,bear,cr,3543_cl_dnn_cr_bear_40_n02133161_1169.JPEG
alexnet,3,984,NaN,bear,bear,cr,3544_cl_dnn_cr_bear_40_n02134418_835.JPEG
alexnet,3,985,NaN,bear,bear,cr,3545_cl_dnn_cr_bear_40_n02134084_3356.JPEG
alexnet,3,986,NaN,bear,bear,cr,3546_cl_dnn_cr_bear_40_n02133161_239.JPEG
alexnet,3,987,NaN,bear,bear,cr,3547_cl_dnn_cr_bear_40_n02132136_9292.JPEG
alexnet,3,988,NaN,bear,bear,cr,3548_cl_dnn_cr_bear_40_n02132136_3432.JPEG
alexnet,3,989,NaN,bear,bear,cr,3549_cl_dnn_cr_bear_40_n02132136_11640.JPEG
alexnet,3,990,NaN,bear,bear,cr,3550_cl_dnn_cr_bear_40_n02134084_5822.JPEG
alexnet,3,991,NaN,bear,bear,cr,3551_cl_dnn_cr_bear_40_n02133161_5313.JPEG
alexnet,3,992,NaN,bear,bear,cr,3552_cl_dnn_cr_bear_40_n02134084_2752.JPEG
alexnet,3,993,NaN,bear,bear,cr,3553_cl_dnn_cr_bear_40_n02134084_11365.JPEG
alexnet,3,994,NaN,bear,bear,cr,3554_cl_dnn_cr_bear_40_n02133161_16133.JPEG
alexnet,3,995,NaN,bear,bear,cr,3555_cl_dnn_cr_bear_40_n02134418_3092.JPEG
alexnet,3,996,NaN,bear,bear,cr,3556_cl_dnn_cr_bear_40_n02133161_1240.JPEG
alexnet,3,997,NaN,bear,bear,cr,3557_cl_dnn_cr_bear_40_n02132136_6856.JPEG
alexnet,3,998,NaN,bear,bear,cr,3558_cl_dnn_cr_bear_40_n02133161_4723.JPEG
alexnet,3,999,NaN,bear,bear,cr,3559_cl_dnn_cr_bear_40_n02133161_2119.JPEG
alexnet,3,1000,NaN,bear,bear,cr,3560_cl_dnn_cr_bear_40_n02132136_27702.JPEG
alexnet,3,1001,NaN,boat,boat,cr,3561_cl_dnn_cr_boat_40_n03662601_1427.JPEG
alexnet,3,1002,NaN,boat,boat,cr,3562_cl_dnn_cr_boat_40_n03662601_25743.JPEG
alexnet,3,1003,NaN,boat,boat,cr,3563_cl_dnn_cr_boat_40_n02951358_4559.JPEG
alexnet,3,1004,NaN,boat,boat,cr,3564_cl_dnn_cr_boat_40_n04273569_3611.JPEG
alexnet,3,1005,NaN,boat,boat,cr,3565_cl_dnn_cr_boat_40_n04273569_4056.JPEG
alexnet,3,1006,NaN,boat,boat,cr,3566_cl_dnn_cr_boat_40_n02951358_11441.JPEG
alexnet,3,1007,NaN,boat,boat,cr,3567_cl_dnn_cr_boat_40_n03662601_802.JPEG
alexnet,3,1008,NaN,boat,boat,cr,3568_cl_dnn_cr_boat_40_n02951358_35709.JPEG
alexnet,3,1009,NaN,boat,boat,cr,3569_cl_dnn_cr_boat_40_n03662601_3984.JPEG
alexnet,3,1010,NaN,boat,boat,cr,3570_cl_dnn_cr_boat_40_n04612504_18795.JPEG
alexnet,3,1011,NaN,boat,boat,cr,3571_cl_dnn_cr_boat_40_n02951358_26300.JPEG
alexnet,3,1012,NaN,boat,boat,cr,3572_cl_dnn_cr_boat_40_n03344393_8055.JPEG
alexnet,3,1013,NaN,boat,boat,cr,3573_cl_dnn_cr_boat_40_n03662601_5149.JPEG
alexnet,3,1014,NaN,boat,boat,cr,3574_cl_dnn_cr_boat_40_n03662601_31609.JPEG
alexnet,3,1015,NaN,boat,boat,cr,3575_cl_dnn_cr_boat_40_n03344393_5837.JPEG
alexnet,3,1016,NaN,boat,boat,cr,3576_cl_dnn_cr_boat_40_n03344393_6103.JPEG
alexnet,3,1017,NaN,boat,boat,cr,3577_cl_dnn_cr_boat_40_n03344393_5852.JPEG
alexnet,3,1018,NaN,boat,boat,cr,3578_cl_dnn_cr_boat_40_n03662601_34042.JPEG
alexnet,3,1019,NaN,boat,boat,cr,3579_cl_dnn_cr_boat_40_n04612504_13989.JPEG
alexnet,3,1020,NaN,boat,boat,cr,3580_cl_dnn_cr_boat_40_n03344393_1247.JPEG
alexnet,3,1021,NaN,boat,boat,cr,3581_cl_dnn_cr_boat_40_n02951358_8495.JPEG
alexnet,3,1022,NaN,boat,boat,cr,3582_cl_dnn_cr_boat_40_n04612504_2339.JPEG
alexnet,3,1023,NaN,boat,boat,cr,3583_cl_dnn_cr_boat_40_n04273569_17977.JPEG
alexnet,3,1024,NaN,boat,boat,cr,3584_cl_dnn_cr_boat_40_n02951358_31775.JPEG
alexnet,3,1025,NaN,boat,boat,cr,3585_cl_dnn_cr_boat_40_n03662601_15698.JPEG
alexnet,3,1026,NaN,boat,boat,cr,3586_cl_dnn_cr_boat_40_n03344393_1944.JPEG
alexnet,3,1027,NaN,boat,boat,cr,3587_cl_dnn_cr_boat_40_n03344393_3337.JPEG
alexnet,3,1028,NaN,boat,boat,cr,3588_cl_dnn_cr_boat_40_n02951358_4972.JPEG
alexnet,3,1029,NaN,boat,boat,cr,3589_cl_dnn_cr_boat_40_n04273569_17671.JPEG
alexnet,3,1030,NaN,boat,boat,cr,3590_cl_dnn_cr_boat_40_n04612504_6724.JPEG
alexnet,3,1031,NaN,boat,boat,cr,3591_cl_dnn_cr_boat_40_n04612504_40120.JPEG
alexnet,3,1032,NaN,boat,boat,cr,3592_cl_dnn_cr_boat_40_n04273569_15773.JPEG
alexnet,3,1033,NaN,boat,boat,cr,3593_cl_dnn_cr_boat_40_n02951358_12658.JPEG
alexnet,3,1034,NaN,boat,boat,cr,3594_cl_dnn_cr_boat_40_n03662601_4671.JPEG
alexnet,3,1035,NaN,boat,boat,cr,3595_cl_dnn_cr_boat_40_n04273569_1865.JPEG
alexnet,3,1036,NaN,boat,boat,cr,3596_cl_dnn_cr_boat_40_n02951358_5732.JPEG
alexnet,3,1037,NaN,boat,boat,cr,3597_cl_dnn_cr_boat_40_n04273569_27839.JPEG
alexnet,3,1038,NaN,boat,boat,cr,3598_cl_dnn_cr_boat_40_n04612504_6722.JPEG
alexnet,3,1039,NaN,boat,boat,cr,3599_cl_dnn_cr_boat_40_n04273569_16551.JPEG
alexnet,3,1040,NaN,boat,boat,cr,3600_cl_dnn_cr_boat_40_n04612504_41.JPEG
alexnet,3,1041,NaN,cat,cat,cr,3601_cl_dnn_cr_cat_40_n02123597_8267.JPEG
alexnet,3,1042,NaN,cat,cat,cr,3602_cl_dnn_cr_cat_40_n02123159_5831.JPEG
alexnet,3,1043,NaN,cat,cat,cr,3603_cl_dnn_cr_cat_40_n02123159_2233.JPEG
alexnet,3,1044,NaN,cat,cat,cr,3604_cl_dnn_cr_cat_40_n02125311_59430.JPEG
alexnet,3,1045,NaN,cat,cat,cr,3605_cl_dnn_cr_cat_40_n02125311_38101.JPEG
alexnet,3,1046,NaN,cat,cat,cr,3606_cl_dnn_cr_cat_40_n02124075_6510.JPEG
alexnet,3,1047,NaN,cat,cat,cr,3607_cl_dnn_cr_cat_40_n02125311_8963.JPEG
alexnet,3,1048,NaN,cat,cat,cr,3608_cl_dnn_cr_cat_40_n02125311_15285.JPEG
alexnet,3,1049,NaN,cat,cat,cr,3609_cl_dnn_cr_cat_40_n02123159_908.JPEG
alexnet,3,1050,NaN,cat,cat,cr,3610_cl_dnn_cr_cat_40_n02123159_5318.JPEG
alexnet,3,1051,NaN,cat,cat,cr,3611_cl_dnn_cr_cat_40_n02124075_10948.JPEG
alexnet,3,1052,NaN,dog,cat,cr,3612_cl_dnn_cr_cat_40_n02125311_22448.JPEG
alexnet,3,1053,NaN,cat,cat,cr,3613_cl_dnn_cr_cat_40_n02123045_10511.JPEG
alexnet,3,1054,NaN,cat,cat,cr,3614_cl_dnn_cr_cat_40_n02125311_10661.JPEG
alexnet,3,1055,NaN,cat,cat,cr,3615_cl_dnn_cr_cat_40_n02123597_1104.JPEG
alexnet,3,1056,NaN,cat,cat,cr,3616_cl_dnn_cr_cat_40_n02123394_919.JPEG
alexnet,3,1057,NaN,cat,cat,cr,3617_cl_dnn_cr_cat_40_n02123045_9901.JPEG
alexnet,3,1058,NaN,cat,cat,cr,3618_cl_dnn_cr_cat_40_n02124075_19870.JPEG
alexnet,3,1059,NaN,cat,cat,cr,3619_cl_dnn_cr_cat_40_n02123394_8369.JPEG
alexnet,3,1060,NaN,cat,cat,cr,3620_cl_dnn_cr_cat_40_n02124075_12229.JPEG
alexnet,3,1061,NaN,bird,cat,cr,3621_cl_dnn_cr_cat_40_n02123045_93.JPEG
alexnet,3,1062,NaN,cat,cat,cr,3622_cl_dnn_cr_cat_40_n02125311_12897.JPEG
alexnet,3,1063,NaN,dog,cat,cr,3623_cl_dnn_cr_cat_40_n02123159_5239.JPEG
alexnet,3,1064,NaN,cat,cat,cr,3624_cl_dnn_cr_cat_40_n02123597_5722.JPEG
alexnet,3,1065,NaN,cat,cat,cr,3625_cl_dnn_cr_cat_40_n02123159_10197.JPEG
alexnet,3,1066,NaN,cat,cat,cr,3626_cl_dnn_cr_cat_40_n02125311_24579.JPEG
alexnet,3,1067,NaN,cat,cat,cr,3627_cl_dnn_cr_cat_40_n02123045_6677.JPEG
alexnet,3,1068,NaN,cat,cat,cr,3628_cl_dnn_cr_cat_40_n02124075_9444.JPEG
alexnet,3,1069,NaN,cat,cat,cr,3629_cl_dnn_cr_cat_40_n02123159_3827.JPEG
alexnet,3,1070,NaN,cat,cat,cr,3630_cl_dnn_cr_cat_40_n02123045_4611.JPEG
alexnet,3,1071,NaN,cat,cat,cr,3631_cl_dnn_cr_cat_40_n02123597_76.JPEG
alexnet,3,1072,NaN,cat,cat,cr,3632_cl_dnn_cr_cat_40_n02125311_11820.JPEG
alexnet,3,1073,NaN,cat,cat,cr,3633_cl_dnn_cr_cat_40_n02123045_6125.JPEG
alexnet,3,1074,NaN,cat,cat,cr,3634_cl_dnn_cr_cat_40_n02123394_1783.JPEG
alexnet,3,1075,NaN,dog,cat,cr,3635_cl_dnn_cr_cat_40_n02125311_26729.JPEG
alexnet,3,1076,NaN,cat,cat,cr,3636_cl_dnn_cr_cat_40_n02124075_5325.JPEG
alexnet,3,1077,NaN,dog,cat,cr,3637_cl_dnn_cr_cat_40_n02124075_4946.JPEG
alexnet,3,1078,NaN,cat,cat,cr,3638_cl_dnn_cr_cat_40_n02125311_15099.JPEG
alexnet,3,1079,NaN,cat,cat,cr,3639_cl_dnn_cr_cat_40_n02123597_11551.JPEG
alexnet,3,1080,NaN,cat,cat,cr,3640_cl_dnn_cr_cat_40_n02123394_2134.JPEG
alexnet,3,1081,NaN,bird,bottle,cr,3641_cl_dnn_cr_bottle_40_n03937543_1501.JPEG
alexnet,3,1082,NaN,bottle,bottle,cr,3642_cl_dnn_cr_bottle_40_n04579145_51.JPEG
alexnet,3,1083,NaN,bottle,bottle,cr,3643_cl_dnn_cr_bottle_40_n04579145_3924.JPEG
alexnet,3,1084,NaN,bottle,bottle,cr,3644_cl_dnn_cr_bottle_40_n04579145_173.JPEG
alexnet,3,1085,NaN,bottle,bottle,cr,3645_cl_dnn_cr_bottle_40_n03937543_5174.JPEG
alexnet,3,1086,NaN,bottle,bottle,cr,3646_cl_dnn_cr_bottle_40_n04560804_5319.JPEG
alexnet,3,1087,NaN,bottle,bottle,cr,3647_cl_dnn_cr_bottle_40_n04579145_2149.JPEG
alexnet,3,1088,NaN,bottle,bottle,cr,3648_cl_dnn_cr_bottle_40_n03983396_4690.JPEG
alexnet,3,1089,NaN,bottle,bottle,cr,3649_cl_dnn_cr_bottle_40_n04591713_5605.JPEG
alexnet,3,1090,NaN,bottle,bottle,cr,3650_cl_dnn_cr_bottle_40_n02823428_4623.JPEG
alexnet,3,1091,NaN,bottle,bottle,cr,3651_cl_dnn_cr_bottle_40_n04557648_6294.JPEG
alexnet,3,1092,NaN,bottle,bottle,cr,3652_cl_dnn_cr_bottle_40_n03937543_2904.JPEG
alexnet,3,1093,NaN,bottle,bottle,cr,3653_cl_dnn_cr_bottle_40_n03937543_10101.JPEG
alexnet,3,1094,NaN,bottle,bottle,cr,3654_cl_dnn_cr_bottle_40_n03983396_20949.JPEG
alexnet,3,1095,NaN,bottle,bottle,cr,3655_cl_dnn_cr_bottle_40_n02823428_9898.JPEG
alexnet,3,1096,NaN,bottle,bottle,cr,3656_cl_dnn_cr_bottle_40_n04560804_9421.JPEG
alexnet,3,1097,NaN,bottle,bottle,cr,3657_cl_dnn_cr_bottle_40_n04579145_6400.JPEG
alexnet,3,1098,NaN,bottle,bottle,cr,3658_cl_dnn_cr_bottle_40_n04591713_14741.JPEG
alexnet,3,1099,NaN,bottle,bottle,cr,3659_cl_dnn_cr_bottle_40_n03983396_2479.JPEG
alexnet,3,1100,NaN,bottle,bottle,cr,3660_cl_dnn_cr_bottle_40_n04591713_5912.JPEG
alexnet,3,1101,NaN,bottle,bottle,cr,3661_cl_dnn_cr_bottle_40_n04557648_4531.JPEG
alexnet,3,1102,NaN,bottle,bottle,cr,3662_cl_dnn_cr_bottle_40_n02823428_1480.JPEG
alexnet,3,1103,NaN,bottle,bottle,cr,3663_cl_dnn_cr_bottle_40_n03983396_2250.JPEG
alexnet,3,1104,NaN,bottle,bottle,cr,3664_cl_dnn_cr_bottle_40_n04560804_1846.JPEG
alexnet,3,1105,NaN,bottle,bottle,cr,3665_cl_dnn_cr_bottle_40_n03937543_6192.JPEG
alexnet,3,1106,NaN,bottle,bottle,cr,3666_cl_dnn_cr_bottle_40_n03937543_3410.JPEG
alexnet,3,1107,NaN,bottle,bottle,cr,3667_cl_dnn_cr_bottle_40_n04591713_4957.JPEG
alexnet,3,1108,NaN,bottle,bottle,cr,3668_cl_dnn_cr_bottle_40_n04557648_3501.JPEG
alexnet,3,1109,NaN,bottle,bottle,cr,3669_cl_dnn_cr_bottle_40_n04560804_6525.JPEG
alexnet,3,1110,NaN,bottle,bottle,cr,3670_cl_dnn_cr_bottle_40_n03983396_4024.JPEG
alexnet,3,1111,NaN,bottle,bottle,cr,3671_cl_dnn_cr_bottle_40_n04591713_619.JPEG
alexnet,3,1112,NaN,bottle,bottle,cr,3672_cl_dnn_cr_bottle_40_n04579145_317.JPEG
alexnet,3,1113,NaN,bottle,bottle,cr,3673_cl_dnn_cr_bottle_40_n03983396_3228.JPEG
alexnet,3,1114,NaN,bottle,bottle,cr,3674_cl_dnn_cr_bottle_40_n03937543_3.JPEG
alexnet,3,1115,NaN,bottle,bottle,cr,3675_cl_dnn_cr_bottle_40_n04591713_3773.JPEG
alexnet,3,1116,NaN,boat,bottle,cr,3676_cl_dnn_cr_bottle_40_n03983396_11496.JPEG
alexnet,3,1117,NaN,bottle,bottle,cr,3677_cl_dnn_cr_bottle_40_n03937543_7357.JPEG
alexnet,3,1118,NaN,bottle,bottle,cr,3678_cl_dnn_cr_bottle_40_n02823428_10639.JPEG
alexnet,3,1119,NaN,bottle,bottle,cr,3679_cl_dnn_cr_bottle_40_n03937543_11966.JPEG
alexnet,3,1120,NaN,bottle,bottle,cr,3680_cl_dnn_cr_bottle_40_n04557648_3447.JPEG
alexnet,3,1121,NaN,truck,truck,cr,3681_cl_dnn_cr_truck_40_n03417042_3327.JPEG
alexnet,3,1122,NaN,truck,truck,cr,3682_cl_dnn_cr_truck_40_n04467665_30756.JPEG
alexnet,3,1123,NaN,truck,truck,cr,3683_cl_dnn_cr_truck_40_n03796401_2514.JPEG
alexnet,3,1124,NaN,truck,truck,cr,3684_cl_dnn_cr_truck_40_n04467665_8012.JPEG
alexnet,3,1125,NaN,truck,truck,cr,3685_cl_dnn_cr_truck_40_n03796401_2569.JPEG
alexnet,3,1126,NaN,truck,truck,cr,3686_cl_dnn_cr_truck_40_n03417042_3755.JPEG
alexnet,3,1127,NaN,truck,truck,cr,3687_cl_dnn_cr_truck_40_n03417042_9052.JPEG
alexnet,3,1128,NaN,truck,truck,cr,3688_cl_dnn_cr_truck_40_n04467665_1077.JPEG
alexnet,3,1129,NaN,truck,truck,cr,3689_cl_dnn_cr_truck_40_n03417042_8634.JPEG
alexnet,3,1130,NaN,truck,truck,cr,3690_cl_dnn_cr_truck_40_n03796401_1691.JPEG
alexnet,3,1131,NaN,truck,truck,cr,3691_cl_dnn_cr_truck_40_n03796401_3216.JPEG
alexnet,3,1132,NaN,truck,truck,cr,3692_cl_dnn_cr_truck_40_n04467665_14719.JPEG
alexnet,3,1133,NaN,truck,truck,cr,3693_cl_dnn_cr_truck_40_n03417042_3084.JPEG
alexnet,3,1134,NaN,truck,truck,cr,3694_cl_dnn_cr_truck_40_n03417042_15198.JPEG
alexnet,3,1135,NaN,truck,truck,cr,3695_cl_dnn_cr_truck_40_n04467665_2044.JPEG
alexnet,3,1136,NaN,truck,truck,cr,3696_cl_dnn_cr_truck_40_n04467665_71086.JPEG
alexnet,3,1137,NaN,truck,truck,cr,3697_cl_dnn_cr_truck_40_n03417042_14459.JPEG
alexnet,3,1138,NaN,truck,truck,cr,3698_cl_dnn_cr_truck_40_n04467665_4166.JPEG
alexnet,3,1139,NaN,truck,truck,cr,3699_cl_dnn_cr_truck_40_n04467665_28287.JPEG
alexnet,3,1140,NaN,truck,truck,cr,3700_cl_dnn_cr_truck_40_n03417042_118.JPEG
alexnet,3,1141,NaN,truck,truck,cr,3701_cl_dnn_cr_truck_40_n04467665_71248.JPEG
alexnet,3,1142,NaN,truck,truck,cr,3702_cl_dnn_cr_truck_40_n03417042_7997.JPEG
alexnet,3,1143,NaN,truck,truck,cr,3703_cl_dnn_cr_truck_40_n03417042_1875.JPEG
alexnet,3,1144,NaN,truck,truck,cr,3704_cl_dnn_cr_truck_40_n03417042_751.JPEG
alexnet,3,1145,NaN,truck,truck,cr,3705_cl_dnn_cr_truck_40_n04467665_67081.JPEG
alexnet,3,1146,NaN,truck,truck,cr,3706_cl_dnn_cr_truck_40_n04467665_69090.JPEG
alexnet,3,1147,NaN,truck,truck,cr,3707_cl_dnn_cr_truck_40_n04467665_34253.JPEG
alexnet,3,1148,NaN,truck,truck,cr,3708_cl_dnn_cr_truck_40_n04467665_31452.JPEG
alexnet,3,1149,NaN,truck,truck,cr,3709_cl_dnn_cr_truck_40_n03417042_26939.JPEG
alexnet,3,1150,NaN,truck,truck,cr,3710_cl_dnn_cr_truck_40_n04467665_13989.JPEG
alexnet,3,1151,NaN,truck,truck,cr,3711_cl_dnn_cr_truck_40_n03417042_1656.JPEG
alexnet,3,1152,NaN,truck,truck,cr,3712_cl_dnn_cr_truck_40_n03417042_27093.JPEG
alexnet,3,1153,NaN,truck,truck,cr,3713_cl_dnn_cr_truck_40_n03417042_27538.JPEG
alexnet,3,1154,NaN,truck,truck,cr,3714_cl_dnn_cr_truck_40_n03417042_9057.JPEG
alexnet,3,1155,NaN,truck,truck,cr,3715_cl_dnn_cr_truck_40_n04467665_29960.JPEG
alexnet,3,1156,NaN,truck,truck,cr,3716_cl_dnn_cr_truck_40_n04467665_41282.JPEG
alexnet,3,1157,NaN,truck,truck,cr,3717_cl_dnn_cr_truck_40_n03417042_3066.JPEG
alexnet,3,1158,NaN,truck,truck,cr,3718_cl_dnn_cr_truck_40_n03417042_21862.JPEG
alexnet,3,1159,NaN,truck,truck,cr,3719_cl_dnn_cr_truck_40_n04467665_43419.JPEG
alexnet,3,1160,NaN,truck,truck,cr,3720_cl_dnn_cr_truck_40_n03417042_27673.JPEG
alexnet,3,1161,NaN,boat,car,cr,3721_cl_dnn_cr_car_40_n03100240_8908.JPEG
alexnet,3,1162,NaN,car,car,cr,3722_cl_dnn_cr_car_40_n04285008_13022.JPEG
alexnet,3,1163,NaN,car,car,cr,3723_cl_dnn_cr_car_40_n02814533_428.JPEG
alexnet,3,1164,NaN,car,car,cr,3724_cl_dnn_cr_car_40_n03100240_3336.JPEG
alexnet,3,1165,NaN,dog,car,cr,3725_cl_dnn_cr_car_40_n04285008_16611.JPEG
alexnet,3,1166,NaN,car,car,cr,3726_cl_dnn_cr_car_40_n04285008_6729.JPEG
alexnet,3,1167,NaN,car,car,cr,3727_cl_dnn_cr_car_40_n02814533_8042.JPEG
alexnet,3,1168,NaN,car,car,cr,3728_cl_dnn_cr_car_40_n03100240_6450.JPEG
alexnet,3,1169,NaN,car,car,cr,3729_cl_dnn_cr_car_40_n02814533_10754.JPEG
alexnet,3,1170,NaN,car,car,cr,3730_cl_dnn_cr_car_40_n03100240_1856.JPEG
alexnet,3,1171,NaN,car,car,cr,3731_cl_dnn_cr_car_40_n02814533_23336.JPEG
alexnet,3,1172,NaN,car,car,cr,3732_cl_dnn_cr_car_40_n02814533_72255.JPEG
alexnet,3,1173,NaN,car,car,cr,3733_cl_dnn_cr_car_40_n03100240_1132.JPEG
alexnet,3,1174,NaN,car,car,cr,3734_cl_dnn_cr_car_40_n03100240_7753.JPEG
alexnet,3,1175,NaN,car,car,cr,3735_cl_dnn_cr_car_40_n04285008_5002.JPEG
alexnet,3,1176,NaN,car,car,cr,3736_cl_dnn_cr_car_40_n02814533_9812.JPEG
alexnet,3,1177,NaN,car,car,cr,3737_cl_dnn_cr_car_40_n04285008_11038.JPEG
alexnet,3,1178,NaN,car,car,cr,3738_cl_dnn_cr_car_40_n02814533_40716.JPEG
alexnet,3,1179,NaN,car,car,cr,3739_cl_dnn_cr_car_40_n04285008_7793.JPEG
alexnet,3,1180,NaN,car,car,cr,3740_cl_dnn_cr_car_40_n02814533_53054.JPEG
alexnet,3,1181,NaN,car,car,cr,3741_cl_dnn_cr_car_40_n04285008_1768.JPEG
alexnet,3,1182,NaN,car,car,cr,3742_cl_dnn_cr_car_40_n02814533_93338.JPEG
alexnet,3,1183,NaN,car,car,cr,3743_cl_dnn_cr_car_40_n02814533_4188.JPEG
alexnet,3,1184,NaN,car,car,cr,3744_cl_dnn_cr_car_40_n04285008_6527.JPEG
alexnet,3,1185,NaN,car,car,cr,3745_cl_dnn_cr_car_40_n04285008_7371.JPEG
alexnet,3,1186,NaN,car,car,cr,3746_cl_dnn_cr_car_40_n02814533_39844.JPEG
alexnet,3,1187,NaN,car,car,cr,3747_cl_dnn_cr_car_40_n02814533_10557.JPEG
alexnet,3,1188,NaN,car,car,cr,3748_cl_dnn_cr_car_40_n03100240_6243.JPEG
alexnet,3,1189,NaN,car,car,cr,3749_cl_dnn_cr_car_40_n04285008_9730.JPEG
alexnet,3,1190,NaN,car,car,cr,3750_cl_dnn_cr_car_40_n04285008_2816.JPEG
alexnet,3,1191,NaN,car,car,cr,3751_cl_dnn_cr_car_40_n02814533_25687.JPEG
alexnet,3,1192,NaN,car,car,cr,3752_cl_dnn_cr_car_40_n03100240_4908.JPEG
alexnet,3,1193,NaN,car,car,cr,3753_cl_dnn_cr_car_40_n02814533_2307.JPEG
alexnet,3,1194,NaN,car,car,cr,3754_cl_dnn_cr_car_40_n02814533_43179.JPEG
alexnet,3,1195,NaN,car,car,cr,3755_cl_dnn_cr_car_40_n04285008_7323.JPEG
alexnet,3,1196,NaN,car,car,cr,3756_cl_dnn_cr_car_40_n04285008_8213.JPEG
alexnet,3,1197,NaN,car,car,cr,3757_cl_dnn_cr_car_40_n02814533_3879.JPEG
alexnet,3,1198,NaN,car,car,cr,3758_cl_dnn_cr_car_40_n03100240_6481.JPEG
alexnet,3,1199,NaN,car,car,cr,3759_cl_dnn_cr_car_40_n02814533_78492.JPEG
alexnet,3,1200,NaN,car,car,cr,3760_cl_dnn_cr_car_40_n03100240_17583.JPEG
alexnet,3,1201,NaN,bird,bird,cr,3761_cl_dnn_cr_bird_40_n02025239_8016.JPEG
alexnet,3,1202,NaN,bird,bird,cr,3762_cl_dnn_cr_bird_40_n02011460_4244.JPEG
alexnet,3,1203,NaN,bird,bird,cr,3763_cl_dnn_cr_bird_40_n01616318_548.JPEG
alexnet,3,1204,NaN,bird,bird,cr,3764_cl_dnn_cr_bird_40_n01514859_903.JPEG
alexnet,3,1205,NaN,bird,bird,cr,3765_cl_dnn_cr_bird_40_n01843065_13277.JPEG
alexnet,3,1206,NaN,bird,bird,cr,3766_cl_dnn_cr_bird_40_n01534433_17159.JPEG
alexnet,3,1207,NaN,bird,bird,cr,3767_cl_dnn_cr_bird_40_n02006656_10477.JPEG
alexnet,3,1208,NaN,bird,bird,cr,3768_cl_dnn_cr_bird_40_n01614925_191.JPEG
alexnet,3,1209,NaN,bird,bird,cr,3769_cl_dnn_cr_bird_40_n02037110_32224.JPEG
alexnet,3,1210,NaN,bird,bird,cr,3770_cl_dnn_cr_bird_40_n02027492_4043.JPEG
alexnet,3,1211,NaN,bird,bird,cr,3771_cl_dnn_cr_bird_40_n01582220_1246.JPEG
alexnet,3,1212,NaN,bird,bird,cr,3772_cl_dnn_cr_bird_40_n02018795_7541.JPEG
alexnet,3,1213,NaN,bird,bird,cr,3773_cl_dnn_cr_bird_40_n01616318_2581.JPEG
alexnet,3,1214,NaN,bird,bird,cr,3774_cl_dnn_cr_bird_40_n02013706_3105.JPEG
alexnet,3,1215,NaN,bird,bird,cr,3775_cl_dnn_cr_bird_40_n01843065_6825.JPEG
alexnet,3,1216,NaN,bird,bird,cr,3776_cl_dnn_cr_bird_40_n01818515_7310.JPEG
alexnet,3,1217,NaN,bird,bird,cr,3777_cl_dnn_cr_bird_40_n01818515_13362.JPEG
alexnet,3,1218,NaN,bird,bird,cr,3778_cl_dnn_cr_bird_40_n02017213_11701.JPEG
alexnet,3,1219,NaN,bird,bird,cr,3779_cl_dnn_cr_bird_40_n01592084_4228.JPEG
alexnet,3,1220,NaN,bird,bird,cr,3780_cl_dnn_cr_bird_40_n01824575_8679.JPEG
alexnet,3,1221,NaN,bird,bird,cr,3781_cl_dnn_cr_bird_40_n01560419_7876.JPEG
alexnet,3,1222,NaN,bird,bird,cr,3782_cl_dnn_cr_bird_40_n02037110_9357.JPEG
alexnet,3,1223,NaN,bird,bird,cr,3783_cl_dnn_cr_bird_40_n01828970_4704.JPEG
alexnet,3,1224,NaN,bird,bird,cr,3784_cl_dnn_cr_bird_40_n01820546_1179.JPEG
alexnet,3,1225,NaN,bird,bird,cr,3785_cl_dnn_cr_bird_40_n01829413_3647.JPEG
alexnet,3,1226,NaN,bird,bird,cr,3786_cl_dnn_cr_bird_40_n01614925_3547.JPEG
alexnet,3,1227,NaN,bird,bird,cr,3787_cl_dnn_cr_bird_40_n01818515_5790.JPEG
alexnet,3,1228,NaN,bird,bird,cr,3788_cl_dnn_cr_bird_40_n01537544_10146.JPEG
alexnet,3,1229,NaN,bird,bird,cr,3789_cl_dnn_cr_bird_40_n01824575_6897.JPEG
alexnet,3,1230,NaN,bird,bird,cr,3790_cl_dnn_cr_bird_40_n02002556_12739.JPEG
alexnet,3,1231,NaN,bird,bird,cr,3791_cl_dnn_cr_bird_40_n01582220_9119.JPEG
alexnet,3,1232,NaN,bird,bird,cr,3792_cl_dnn_cr_bird_40_n02009912_9928.JPEG
alexnet,3,1233,NaN,bird,bird,cr,3793_cl_dnn_cr_bird_40_n01818515_39451.JPEG
alexnet,3,1234,NaN,bird,bird,cr,3794_cl_dnn_cr_bird_40_n02028035_1397.JPEG
alexnet,3,1235,NaN,bird,bird,cr,3795_cl_dnn_cr_bird_40_n01530575_10313.JPEG
alexnet,3,1236,NaN,bird,bird,cr,3796_cl_dnn_cr_bird_40_n02018207_12079.JPEG
alexnet,3,1237,NaN,bird,bird,cr,3797_cl_dnn_cr_bird_40_n01820546_1160.JPEG
alexnet,3,1238,NaN,bird,bird,cr,3798_cl_dnn_cr_bird_40_n02007558_3743.JPEG
alexnet,3,1239,NaN,bird,bird,cr,3799_cl_dnn_cr_bird_40_n01558993_6772.JPEG
alexnet,3,1240,NaN,bird,bird,cr,3800_cl_dnn_cr_bird_40_n01534433_21548.JPEG
alexnet,3,1241,NaN,dog,dog,cr,3801_cl_dnn_cr_dog_40_n02089973_7552.JPEG
alexnet,3,1242,NaN,dog,dog,cr,3802_cl_dnn_cr_dog_40_n02110185_5027.JPEG
alexnet,3,1243,NaN,dog,dog,cr,3803_cl_dnn_cr_dog_40_n02107683_4698.JPEG
alexnet,3,1244,NaN,dog,dog,cr,3804_cl_dnn_cr_dog_40_n02102177_2027.JPEG
alexnet,3,1245,NaN,dog,dog,cr,3805_cl_dnn_cr_dog_40_n02094114_4604.JPEG
alexnet,3,1246,NaN,dog,dog,cr,3806_cl_dnn_cr_dog_40_n02113712_4022.JPEG
alexnet,3,1247,NaN,dog,dog,cr,3807_cl_dnn_cr_dog_40_n02099267_3255.JPEG
alexnet,3,1248,NaN,dog,dog,cr,3808_cl_dnn_cr_dog_40_n02096585_273.JPEG
alexnet,3,1249,NaN,dog,dog,cr,3809_cl_dnn_cr_dog_40_n02107142_7459.JPEG
alexnet,3,1250,NaN,dog,dog,cr,3810_cl_dnn_cr_dog_40_n02091032_11143.JPEG
alexnet,3,1251,NaN,dog,dog,cr,3811_cl_dnn_cr_dog_40_n02092002_5226.JPEG
alexnet,3,1252,NaN,boat,dog,cr,3812_cl_dnn_cr_dog_40_n02096051_2197.JPEG
alexnet,3,1253,NaN,dog,dog,cr,3813_cl_dnn_cr_dog_40_n02109047_1851.JPEG
alexnet,3,1254,NaN,dog,dog,cr,3814_cl_dnn_cr_dog_40_n02107908_4497.JPEG
alexnet,3,1255,NaN,dog,dog,cr,3815_cl_dnn_cr_dog_40_n02111500_9058.JPEG
alexnet,3,1256,NaN,dog,dog,cr,3816_cl_dnn_cr_dog_40_n02100735_9970.JPEG
alexnet,3,1257,NaN,dog,dog,cr,3817_cl_dnn_cr_dog_40_n02109525_4978.JPEG
alexnet,3,1258,NaN,dog,dog,cr,3818_cl_dnn_cr_dog_40_n02106166_3156.JPEG
alexnet,3,1259,NaN,dog,dog,cr,3819_cl_dnn_cr_dog_40_n02110958_6629.JPEG
alexnet,3,1260,NaN,dog,dog,cr,3820_cl_dnn_cr_dog_40_n02093256_4658.JPEG
alexnet,3,1261,NaN,dog,dog,cr,3821_cl_dnn_cr_dog_40_n02098105_5411.JPEG
alexnet,3,1262,NaN,dog,dog,cr,3822_cl_dnn_cr_dog_40_n02102973_6311.JPEG
alexnet,3,1263,NaN,dog,dog,cr,3823_cl_dnn_cr_dog_40_n02086646_6105.JPEG
alexnet,3,1264,NaN,dog,dog,cr,3824_cl_dnn_cr_dog_40_n02099429_4866.JPEG
alexnet,3,1265,NaN,dog,dog,cr,3825_cl_dnn_cr_dog_40_n02102177_8025.JPEG
alexnet,3,1266,NaN,dog,dog,cr,3826_cl_dnn_cr_dog_40_n02088364_9774.JPEG
alexnet,3,1267,NaN,dog,dog,cr,3827_cl_dnn_cr_dog_40_n02107908_5915.JPEG
alexnet,3,1268,NaN,dog,dog,cr,3828_cl_dnn_cr_dog_40_n02098286_5589.JPEG
