subj,session,trial,rt,object_response,category,condition,imagename
vgg,5,1,NaN,dog,knife,bw,5121_cl_dnn_bw_knife_40_n03041632_23678.JPEG
vgg,5,2,NaN,knife,knife,bw,5122_cl_dnn_bw_knife_40_n03041632_31271.JPEG
vgg,5,3,NaN,knife,knife,bw,5123_cl_dnn_bw_knife_40_n03041632_83826.JPEG
vgg,5,4,NaN,knife,knife,bw,5124_cl_dnn_bw_knife_40_n03041632_25022.JPEG
vgg,5,5,NaN,knife,knife,bw,5125_cl_dnn_bw_knife_40_n03041632_29862.JPEG
vgg,5,6,NaN,knife,knife,bw,5126_cl_dnn_bw_knife_40_n03041632_24060.JPEG
vgg,5,7,NaN,knife,knife,bw,5127_cl_dnn_bw_knife_40_n03041632_27960.JPEG
vgg,5,8,NaN,knife,knife,bw,5128_cl_dnn_bw_knife_40_n03041632_24561.JPEG
vgg,5,9,NaN,chair,knife,bw,5129_cl_dnn_bw_knife_40_n03041632_96345.JPEG
vgg,5,10,NaN,knife,knife,bw,5130_cl_dnn_bw_knife_40_n03041632_4808.JPEG
vgg,5,11,NaN,knife,knife,bw,5131_cl_dnn_bw_knife_40_n03041632_15250.JPEG
vgg,5,12,NaN,knife,knife,bw,5132_cl_dnn_bw_knife_40_n03041632_16606.JPEG
vgg,5,13,NaN,knife,knife,bw,5133_cl_dnn_bw_knife_40_n03041632_26989.JPEG
vgg,5,14,NaN,knife,knife,bw,5134_cl_dnn_bw_knife_40_n03041632_22286.JPEG
vgg,5,15,NaN,knife,knife,bw,5135_cl_dnn_bw_knife_40_n03041632_94470.JPEG
vgg,5,16,NaN,knife,knife,bw,5136_cl_dnn_bw_knife_40_n03041632_45090.JPEG
vgg,5,17,NaN,knife,knife,bw,5137_cl_dnn_bw_knife_40_n03041632_24264.JPEG
vgg,5,18,NaN,knife,knife,bw,5138_cl_dnn_bw_knife_40_n03041632_94202.JPEG
vgg,5,19,NaN,chair,knife,bw,5139_cl_dnn_bw_knife_40_n03041632_27848.JPEG
vgg,5,20,NaN,bottle,knife,bw,5140_cl_dnn_bw_knife_40_n03041632_94995.JPEG
vgg,5,21,NaN,bottle,knife,bw,5141_cl_dnn_bw_knife_40_n03041632_31632.JPEG
vgg,5,22,NaN,knife,knife,bw,5142_cl_dnn_bw_knife_40_n03041632_18532.JPEG
vgg,5,23,NaN,knife,knife,bw,5143_cl_dnn_bw_knife_40_n03041632_39952.JPEG
vgg,5,24,NaN,knife,knife,bw,5144_cl_dnn_bw_knife_40_n03041632_3159.JPEG
vgg,5,25,NaN,knife,knife,bw,5145_cl_dnn_bw_knife_40_n03041632_28443.JPEG
vgg,5,26,NaN,knife,knife,bw,5146_cl_dnn_bw_knife_40_n03041632_25257.JPEG
vgg,5,27,NaN,knife,knife,bw,5147_cl_dnn_bw_knife_40_n03041632_84048.JPEG
vgg,5,28,NaN,knife,knife,bw,5148_cl_dnn_bw_knife_40_n03041632_12537.JPEG
vgg,5,29,NaN,knife,knife,bw,5149_cl_dnn_bw_knife_40_n03041632_24376.JPEG
vgg,5,30,NaN,knife,knife,bw,5150_cl_dnn_bw_knife_40_n03041632_9759.JPEG
vgg,5,31,NaN,knife,knife,bw,5151_cl_dnn_bw_knife_40_n03041632_32292.JPEG
vgg,5,32,NaN,keyboard,knife,bw,5152_cl_dnn_bw_knife_40_n03041632_76163.JPEG
vgg,5,33,NaN,knife,knife,bw,5153_cl_dnn_bw_knife_40_n03041632_86338.JPEG
vgg,5,34,NaN,knife,knife,bw,5154_cl_dnn_bw_knife_40_n03041632_99799.JPEG
vgg,5,35,NaN,knife,knife,bw,5155_cl_dnn_bw_knife_40_n03041632_12707.JPEG
vgg,5,36,NaN,knife,knife,bw,5156_cl_dnn_bw_knife_40_n03041632_47410.JPEG
vgg,5,37,NaN,knife,knife,bw,5157_cl_dnn_bw_knife_40_n03041632_25512.JPEG
vgg,5,38,NaN,knife,knife,bw,5158_cl_dnn_bw_knife_40_n03041632_50034.JPEG
vgg,5,39,NaN,knife,knife,bw,5159_cl_dnn_bw_knife_40_n03041632_35365.JPEG
vgg,5,40,NaN,knife,knife,bw,5160_cl_dnn_bw_knife_40_n03041632_24114.JPEG
vgg,5,41,NaN,keyboard,keyboard,bw,5161_cl_dnn_bw_keyboard_40_n04505470_4486.JPEG
vgg,5,42,NaN,keyboard,keyboard,bw,5162_cl_dnn_bw_keyboard_40_n03085013_24793.JPEG
vgg,5,43,NaN,keyboard,keyboard,bw,5163_cl_dnn_bw_keyboard_40_n03085013_32791.JPEG
vgg,5,44,NaN,keyboard,keyboard,bw,5164_cl_dnn_bw_keyboard_40_n03085013_24404.JPEG
vgg,5,45,NaN,keyboard,keyboard,bw,5165_cl_dnn_bw_keyboard_40_n04505470_10076.JPEG
vgg,5,46,NaN,keyboard,keyboard,bw,5166_cl_dnn_bw_keyboard_40_n03085013_25559.JPEG
vgg,5,47,NaN,keyboard,keyboard,bw,5167_cl_dnn_bw_keyboard_40_n03085013_8136.JPEG
vgg,5,48,NaN,keyboard,keyboard,bw,5168_cl_dnn_bw_keyboard_40_n03085013_8299.JPEG
vgg,5,49,NaN,keyboard,keyboard,bw,5169_cl_dnn_bw_keyboard_40_n03085013_24272.JPEG
vgg,5,50,NaN,keyboard,keyboard,bw,5170_cl_dnn_bw_keyboard_40_n03085013_20478.JPEG
vgg,5,51,NaN,keyboard,keyboard,bw,5171_cl_dnn_bw_keyboard_40_n03085013_23418.JPEG
vgg,5,52,NaN,keyboard,keyboard,bw,5172_cl_dnn_bw_keyboard_40_n03085013_5751.JPEG
vgg,5,53,NaN,keyboard,keyboard,bw,5173_cl_dnn_bw_keyboard_40_n03085013_20792.JPEG
vgg,5,54,NaN,keyboard,keyboard,bw,5174_cl_dnn_bw_keyboard_40_n03085013_18398.JPEG
vgg,5,55,NaN,keyboard,keyboard,bw,5175_cl_dnn_bw_keyboard_40_n04505470_2620.JPEG
vgg,5,56,NaN,keyboard,keyboard,bw,5176_cl_dnn_bw_keyboard_40_n03085013_17914.JPEG
vgg,5,57,NaN,keyboard,keyboard,bw,5177_cl_dnn_bw_keyboard_40_n03085013_20661.JPEG
vgg,5,58,NaN,keyboard,keyboard,bw,5178_cl_dnn_bw_keyboard_40_n03085013_3318.JPEG
vgg,5,59,NaN,keyboard,keyboard,bw,5179_cl_dnn_bw_keyboard_40_n03085013_7286.JPEG
vgg,5,60,NaN,keyboard,keyboard,bw,5180_cl_dnn_bw_keyboard_40_n04505470_2055.JPEG
vgg,5,61,NaN,keyboard,keyboard,bw,5181_cl_dnn_bw_keyboard_40_n03085013_23312.JPEG
vgg,5,62,NaN,keyboard,keyboard,bw,5182_cl_dnn_bw_keyboard_40_n03085013_22585.JPEG
vgg,5,63,NaN,keyboard,keyboard,bw,5183_cl_dnn_bw_keyboard_40_n03085013_20712.JPEG
vgg,5,64,NaN,keyboard,keyboard,bw,5184_cl_dnn_bw_keyboard_40_n04505470_4943.JPEG
vgg,5,65,NaN,keyboard,keyboard,bw,5185_cl_dnn_bw_keyboard_40_n03085013_22796.JPEG
vgg,5,66,NaN,keyboard,keyboard,bw,5186_cl_dnn_bw_keyboard_40_n04505470_8544.JPEG
vgg,5,67,NaN,keyboard,keyboard,bw,5187_cl_dnn_bw_keyboard_40_n03085013_23323.JPEG
vgg,5,68,NaN,keyboard,keyboard,bw,5188_cl_dnn_bw_keyboard_40_n04505470_4761.JPEG
vgg,5,69,NaN,keyboard,keyboard,bw,5189_cl_dnn_bw_keyboard_40_n03085013_12708.JPEG
vgg,5,70,NaN,cat,keyboard,bw,5190_cl_dnn_bw_keyboard_40_n03085013_3078.JPEG
vgg,5,71,NaN,keyboard,keyboard,bw,5191_cl_dnn_bw_keyboard_40_n04505470_4723.JPEG
vgg,5,72,NaN,keyboard,keyboard,bw,5192_cl_dnn_bw_keyboard_40_n03085013_21649.JPEG
vgg,5,73,NaN,keyboard,keyboard,bw,5193_cl_dnn_bw_keyboard_40_n03085013_23843.JPEG
vgg,5,74,NaN,keyboard,keyboard,bw,5194_cl_dnn_bw_keyboard_40_n04505470_5043.JPEG
vgg,5,75,NaN,keyboard,keyboard,bw,5195_cl_dnn_bw_keyboard_40_n04505470_158.JPEG
vgg,5,76,NaN,keyboard,keyboard,bw,5196_cl_dnn_bw_keyboard_40_n03085013_4856.JPEG
vgg,5,77,NaN,keyboard,keyboard,bw,5197_cl_dnn_bw_keyboard_40_n03085013_20699.JPEG
vgg,5,78,NaN,keyboard,keyboard,bw,5198_cl_dnn_bw_keyboard_40_n03085013_20424.JPEG
vgg,5,79,NaN,keyboard,keyboard,bw,5199_cl_dnn_bw_keyboard_40_n03085013_4136.JPEG
vgg,5,80,NaN,keyboard,keyboard,bw,5200_cl_dnn_bw_keyboard_40_n03085013_23037.JPEG
vgg,5,81,NaN,elephant,elephant,bw,5201_cl_dnn_bw_elephant_40_n02504458_5685.JPEG
vgg,5,82,NaN,elephant,elephant,bw,5202_cl_dnn_bw_elephant_40_n02504458_10428.JPEG
vgg,5,83,NaN,elephant,elephant,bw,5203_cl_dnn_bw_elephant_40_n02504458_5191.JPEG
vgg,5,84,NaN,elephant,elephant,bw,5204_cl_dnn_bw_elephant_40_n02504458_150.JPEG
vgg,5,85,NaN,elephant,elephant,bw,5205_cl_dnn_bw_elephant_40_n02504458_5797.JPEG
vgg,5,86,NaN,elephant,elephant,bw,5206_cl_dnn_bw_elephant_40_n02504013_53.JPEG
vgg,5,87,NaN,elephant,elephant,bw,5207_cl_dnn_bw_elephant_40_n02504458_3928.JPEG
vgg,5,88,NaN,elephant,elephant,bw,5208_cl_dnn_bw_elephant_40_n02504013_1094.JPEG
vgg,5,89,NaN,elephant,elephant,bw,5209_cl_dnn_bw_elephant_40_n02504013_677.JPEG
vgg,5,90,NaN,elephant,elephant,bw,5210_cl_dnn_bw_elephant_40_n02504458_3889.JPEG
vgg,5,91,NaN,elephant,elephant,bw,5211_cl_dnn_bw_elephant_40_n02504013_7701.JPEG
vgg,5,92,NaN,elephant,elephant,bw,5212_cl_dnn_bw_elephant_40_n02504013_7467.JPEG
vgg,5,93,NaN,elephant,elephant,bw,5213_cl_dnn_bw_elephant_40_n02504458_143.JPEG
vgg,5,94,NaN,elephant,elephant,bw,5214_cl_dnn_bw_elephant_40_n02504458_5209.JPEG
vgg,5,95,NaN,elephant,elephant,bw,5215_cl_dnn_bw_elephant_40_n02504013_5021.JPEG
vgg,5,96,NaN,elephant,elephant,bw,5216_cl_dnn_bw_elephant_40_n02504458_7822.JPEG
vgg,5,97,NaN,elephant,elephant,bw,5217_cl_dnn_bw_elephant_40_n02504013_9099.JPEG
vgg,5,98,NaN,elephant,elephant,bw,5218_cl_dnn_bw_elephant_40_n02504458_2135.JPEG
vgg,5,99,NaN,elephant,elephant,bw,5219_cl_dnn_bw_elephant_40_n02504013_18224.JPEG
vgg,5,100,NaN,elephant,elephant,bw,5220_cl_dnn_bw_elephant_40_n02504013_5783.JPEG
vgg,5,101,NaN,elephant,elephant,bw,5221_cl_dnn_bw_elephant_40_n02504458_4639.JPEG
vgg,5,102,NaN,elephant,elephant,bw,5222_cl_dnn_bw_elephant_40_n02504458_8526.JPEG
vgg,5,103,NaN,elephant,elephant,bw,5223_cl_dnn_bw_elephant_40_n02504013_6150.JPEG
vgg,5,104,NaN,dog,elephant,bw,5224_cl_dnn_bw_elephant_40_n02504458_10515.JPEG
vgg,5,105,NaN,elephant,elephant,bw,5225_cl_dnn_bw_elephant_40_n02504458_8158.JPEG
vgg,5,106,NaN,elephant,elephant,bw,5226_cl_dnn_bw_elephant_40_n02504458_66.JPEG
vgg,5,107,NaN,elephant,elephant,bw,5227_cl_dnn_bw_elephant_40_n02504458_242.JPEG
vgg,5,108,NaN,elephant,elephant,bw,5228_cl_dnn_bw_elephant_40_n02504458_2471.JPEG
vgg,5,109,NaN,elephant,elephant,bw,5229_cl_dnn_bw_elephant_40_n02504458_1502.JPEG
vgg,5,110,NaN,elephant,elephant,bw,5230_cl_dnn_bw_elephant_40_n02504013_3719.JPEG
vgg,5,111,NaN,elephant,elephant,bw,5231_cl_dnn_bw_elephant_40_n02504013_11144.JPEG
vgg,5,112,NaN,elephant,elephant,bw,5232_cl_dnn_bw_elephant_40_n02504458_3303.JPEG
vgg,5,113,NaN,elephant,elephant,bw,5233_cl_dnn_bw_elephant_40_n02504458_5827.JPEG
vgg,5,114,NaN,elephant,elephant,bw,5234_cl_dnn_bw_elephant_40_n02504013_3173.JPEG
vgg,5,115,NaN,elephant,elephant,bw,5235_cl_dnn_bw_elephant_40_n02504013_559.JPEG
vgg,5,116,NaN,elephant,elephant,bw,5236_cl_dnn_bw_elephant_40_n02504013_9396.JPEG
vgg,5,117,NaN,elephant,elephant,bw,5237_cl_dnn_bw_elephant_40_n02504013_4211.JPEG
vgg,5,118,NaN,elephant,elephant,bw,5238_cl_dnn_bw_elephant_40_n02504458_1996.JPEG
vgg,5,119,NaN,elephant,elephant,bw,5239_cl_dnn_bw_elephant_40_n02504013_23590.JPEG
vgg,5,120,NaN,elephant,elephant,bw,5240_cl_dnn_bw_elephant_40_n02504458_4776.JPEG
vgg,5,121,NaN,bicycle,bicycle,bw,5241_cl_dnn_bw_bicycle_40_n03792782_1712.JPEG
vgg,5,122,NaN,bicycle,bicycle,bw,5242_cl_dnn_bw_bicycle_40_n03792782_21178.JPEG
vgg,5,123,NaN,bicycle,bicycle,bw,5243_cl_dnn_bw_bicycle_40_n02835271_2461.JPEG
vgg,5,124,NaN,bicycle,bicycle,bw,5244_cl_dnn_bw_bicycle_40_n03792782_613.JPEG
vgg,5,125,NaN,bicycle,bicycle,bw,5245_cl_dnn_bw_bicycle_40_n02835271_11906.JPEG
vgg,5,126,NaN,bicycle,bicycle,bw,5246_cl_dnn_bw_bicycle_40_n03792782_14746.JPEG
vgg,5,127,NaN,bicycle,bicycle,bw,5247_cl_dnn_bw_bicycle_40_n02835271_9594.JPEG
vgg,5,128,NaN,bicycle,bicycle,bw,5248_cl_dnn_bw_bicycle_40_n02835271_21812.JPEG
vgg,5,129,NaN,bicycle,bicycle,bw,5249_cl_dnn_bw_bicycle_40_n02835271_14167.JPEG
vgg,5,130,NaN,bicycle,bicycle,bw,5250_cl_dnn_bw_bicycle_40_n02835271_25033.JPEG
vgg,5,131,NaN,bicycle,bicycle,bw,5251_cl_dnn_bw_bicycle_40_n03792782_4659.JPEG
vgg,5,132,NaN,bicycle,bicycle,bw,5252_cl_dnn_bw_bicycle_40_n03792782_12815.JPEG
vgg,5,133,NaN,bicycle,bicycle,bw,5253_cl_dnn_bw_bicycle_40_n02835271_8059.JPEG
vgg,5,134,NaN,bicycle,bicycle,bw,5254_cl_dnn_bw_bicycle_40_n03792782_21541.JPEG
vgg,5,135,NaN,bicycle,bicycle,bw,5255_cl_dnn_bw_bicycle_40_n02835271_12903.JPEG
vgg,5,136,NaN,bicycle,bicycle,bw,5256_cl_dnn_bw_bicycle_40_n03792782_16568.JPEG
vgg,5,137,NaN,bicycle,bicycle,bw,5257_cl_dnn_bw_bicycle_40_n03792782_9091.JPEG
vgg,5,138,NaN,bicycle,bicycle,bw,5258_cl_dnn_bw_bicycle_40_n02835271_12288.JPEG
vgg,5,139,NaN,bicycle,bicycle,bw,5259_cl_dnn_bw_bicycle_40_n02835271_8788.JPEG
vgg,5,140,NaN,bicycle,bicycle,bw,5260_cl_dnn_bw_bicycle_40_n02835271_15038.JPEG
vgg,5,141,NaN,bicycle,bicycle,bw,5261_cl_dnn_bw_bicycle_40_n03792782_3069.JPEG
vgg,5,142,NaN,bicycle,bicycle,bw,5262_cl_dnn_bw_bicycle_40_n02835271_7570.JPEG
vgg,5,143,NaN,bicycle,bicycle,bw,5263_cl_dnn_bw_bicycle_40_n03792782_33636.JPEG
vgg,5,144,NaN,bicycle,bicycle,bw,5264_cl_dnn_bw_bicycle_40_n03792782_12010.JPEG
vgg,5,145,NaN,bicycle,bicycle,bw,5265_cl_dnn_bw_bicycle_40_n03792782_1924.JPEG
vgg,5,146,NaN,bicycle,bicycle,bw,5266_cl_dnn_bw_bicycle_40_n02835271_8408.JPEG
vgg,5,147,NaN,bicycle,bicycle,bw,5267_cl_dnn_bw_bicycle_40_n03792782_1418.JPEG
vgg,5,148,NaN,bicycle,bicycle,bw,5268_cl_dnn_bw_bicycle_40_n03792782_3613.JPEG
vgg,5,149,NaN,bicycle,bicycle,bw,5269_cl_dnn_bw_bicycle_40_n03792782_14230.JPEG
vgg,5,150,NaN,bicycle,bicycle,bw,5270_cl_dnn_bw_bicycle_40_n02835271_173.JPEG
vgg,5,151,NaN,bicycle,bicycle,bw,5271_cl_dnn_bw_bicycle_40_n03792782_6794.JPEG
vgg,5,152,NaN,bicycle,bicycle,bw,5272_cl_dnn_bw_bicycle_40_n02835271_29266.JPEG
vgg,5,153,NaN,bicycle,bicycle,bw,5273_cl_dnn_bw_bicycle_40_n03792782_1334.JPEG
vgg,5,154,NaN,bicycle,bicycle,bw,5274_cl_dnn_bw_bicycle_40_n02835271_23993.JPEG
vgg,5,155,NaN,bicycle,bicycle,bw,5275_cl_dnn_bw_bicycle_40_n02835271_10818.JPEG
vgg,5,156,NaN,bicycle,bicycle,bw,5276_cl_dnn_bw_bicycle_40_n02835271_8621.JPEG
vgg,5,157,NaN,bicycle,bicycle,bw,5277_cl_dnn_bw_bicycle_40_n02835271_15925.JPEG
vgg,5,158,NaN,bicycle,bicycle,bw,5278_cl_dnn_bw_bicycle_40_n02835271_13104.JPEG
vgg,5,159,NaN,bicycle,bicycle,bw,5279_cl_dnn_bw_bicycle_40_n02835271_8308.JPEG
vgg,5,160,NaN,bicycle,bicycle,bw,5280_cl_dnn_bw_bicycle_40_n03792782_7171.JPEG
vgg,5,161,NaN,airplane,airplane,bw,5281_cl_dnn_bw_airplane_40_n02690373_8231.JPEG
vgg,5,162,NaN,airplane,airplane,bw,5282_cl_dnn_bw_airplane_40_n02690373_5176.JPEG
vgg,5,163,NaN,airplane,airplane,bw,5283_cl_dnn_bw_airplane_40_n02690373_4486.JPEG
vgg,5,164,NaN,airplane,airplane,bw,5284_cl_dnn_bw_airplane_40_n02690373_5967.JPEG
vgg,5,165,NaN,airplane,airplane,bw,5285_cl_dnn_bw_airplane_40_n02690373_6223.JPEG
vgg,5,166,NaN,airplane,airplane,bw,5286_cl_dnn_bw_airplane_40_n02690373_4409.JPEG
vgg,5,167,NaN,airplane,airplane,bw,5287_cl_dnn_bw_airplane_40_n02690373_7535.JPEG
vgg,5,168,NaN,airplane,airplane,bw,5288_cl_dnn_bw_airplane_40_n02690373_9137.JPEG
vgg,5,169,NaN,airplane,airplane,bw,5289_cl_dnn_bw_airplane_40_n02690373_4578.JPEG
vgg,5,170,NaN,airplane,airplane,bw,5290_cl_dnn_bw_airplane_40_n02690373_19329.JPEG
vgg,5,171,NaN,airplane,airplane,bw,5291_cl_dnn_bw_airplane_40_n02690373_18936.JPEG
vgg,5,172,NaN,airplane,airplane,bw,5292_cl_dnn_bw_airplane_40_n02690373_5029.JPEG
vgg,5,173,NaN,airplane,airplane,bw,5293_cl_dnn_bw_airplane_40_n02690373_9300.JPEG
vgg,5,174,NaN,airplane,airplane,bw,5294_cl_dnn_bw_airplane_40_n02690373_4943.JPEG
vgg,5,175,NaN,truck,airplane,bw,5295_cl_dnn_bw_airplane_40_n02690373_2075.JPEG
vgg,5,176,NaN,airplane,airplane,bw,5296_cl_dnn_bw_airplane_40_n02690373_18479.JPEG
vgg,5,177,NaN,airplane,airplane,bw,5297_cl_dnn_bw_airplane_40_n02690373_6200.JPEG
vgg,5,178,NaN,airplane,airplane,bw,5298_cl_dnn_bw_airplane_40_n02690373_4728.JPEG
vgg,5,179,NaN,airplane,airplane,bw,5299_cl_dnn_bw_airplane_40_n02690373_111.JPEG
vgg,5,180,NaN,airplane,airplane,bw,5300_cl_dnn_bw_airplane_40_n02690373_4681.JPEG
vgg,5,181,NaN,airplane,airplane,bw,5301_cl_dnn_bw_airplane_40_n02690373_2496.JPEG
vgg,5,182,NaN,airplane,airplane,bw,5302_cl_dnn_bw_airplane_40_n02690373_5581.JPEG
vgg,5,183,NaN,airplane,airplane,bw,5303_cl_dnn_bw_airplane_40_n02690373_8417.JPEG
vgg,5,184,NaN,airplane,airplane,bw,5304_cl_dnn_bw_airplane_40_n02690373_7530.JPEG
vgg,5,185,NaN,boat,airplane,bw,5305_cl_dnn_bw_airplane_40_n02690373_5130.JPEG
vgg,5,186,NaN,airplane,airplane,bw,5306_cl_dnn_bw_airplane_40_n02690373_7651.JPEG
vgg,5,187,NaN,airplane,airplane,bw,5307_cl_dnn_bw_airplane_40_n02690373_9991.JPEG
vgg,5,188,NaN,airplane,airplane,bw,5308_cl_dnn_bw_airplane_40_n02690373_10354.JPEG
vgg,5,189,NaN,airplane,airplane,bw,5309_cl_dnn_bw_airplane_40_n02690373_2598.JPEG
vgg,5,190,NaN,airplane,airplane,bw,5310_cl_dnn_bw_airplane_40_n02690373_4298.JPEG
vgg,5,191,NaN,airplane,airplane,bw,5311_cl_dnn_bw_airplane_40_n02690373_2324.JPEG
vgg,5,192,NaN,airplane,airplane,bw,5312_cl_dnn_bw_airplane_40_n02690373_10006.JPEG
vgg,5,193,NaN,airplane,airplane,bw,5313_cl_dnn_bw_airplane_40_n02690373_9529.JPEG
vgg,5,194,NaN,airplane,airplane,bw,5314_cl_dnn_bw_airplane_40_n02690373_8804.JPEG
vgg,5,195,NaN,airplane,airplane,bw,5315_cl_dnn_bw_airplane_40_n02690373_1946.JPEG
vgg,5,196,NaN,airplane,airplane,bw,5316_cl_dnn_bw_airplane_40_n02690373_4225.JPEG
vgg,5,197,NaN,airplane,airplane,bw,5317_cl_dnn_bw_airplane_40_n02690373_1167.JPEG
vgg,5,198,NaN,airplane,airplane,bw,5318_cl_dnn_bw_airplane_40_n02690373_7239.JPEG
vgg,5,199,NaN,airplane,airplane,bw,5319_cl_dnn_bw_airplane_40_n02690373_3064.JPEG
vgg,5,200,NaN,airplane,airplane,bw,5320_cl_dnn_bw_airplane_40_n02690373_5254.JPEG
vgg,5,201,NaN,clock,clock,bw,5321_cl_dnn_bw_clock_40_n02708093_464.JPEG
vgg,5,202,NaN,clock,clock,bw,5322_cl_dnn_bw_clock_40_n04548280_8971.JPEG
vgg,5,203,NaN,clock,clock,bw,5323_cl_dnn_bw_clock_40_n03196217_1698.JPEG
vgg,5,204,NaN,clock,clock,bw,5324_cl_dnn_bw_clock_40_n03196217_9563.JPEG
vgg,5,205,NaN,clock,clock,bw,5325_cl_dnn_bw_clock_40_n04548280_24096.JPEG
vgg,5,206,NaN,clock,clock,bw,5326_cl_dnn_bw_clock_40_n02708093_8121.JPEG
vgg,5,207,NaN,clock,clock,bw,5327_cl_dnn_bw_clock_40_n04548280_2559.JPEG
vgg,5,208,NaN,clock,clock,bw,5328_cl_dnn_bw_clock_40_n03196217_5742.JPEG
vgg,5,209,NaN,clock,clock,bw,5329_cl_dnn_bw_clock_40_n04548280_7539.JPEG
vgg,5,210,NaN,clock,clock,bw,5330_cl_dnn_bw_clock_40_n03196217_2271.JPEG
vgg,5,211,NaN,clock,clock,bw,5331_cl_dnn_bw_clock_40_n04548280_5068.JPEG
vgg,5,212,NaN,clock,clock,bw,5332_cl_dnn_bw_clock_40_n02708093_616.JPEG
vgg,5,213,NaN,clock,clock,bw,5333_cl_dnn_bw_clock_40_n04548280_8668.JPEG
vgg,5,214,NaN,clock,clock,bw,5334_cl_dnn_bw_clock_40_n04548280_3341.JPEG
vgg,5,215,NaN,clock,clock,bw,5335_cl_dnn_bw_clock_40_n03196217_3272.JPEG
vgg,5,216,NaN,clock,clock,bw,5336_cl_dnn_bw_clock_40_n04548280_4709.JPEG
vgg,5,217,NaN,clock,clock,bw,5337_cl_dnn_bw_clock_40_n04548280_9513.JPEG
vgg,5,218,NaN,chair,clock,bw,5338_cl_dnn_bw_clock_40_n04548280_2472.JPEG
vgg,5,219,NaN,clock,clock,bw,5339_cl_dnn_bw_clock_40_n04548280_4163.JPEG
vgg,5,220,NaN,clock,clock,bw,5340_cl_dnn_bw_clock_40_n03196217_156.JPEG
vgg,5,221,NaN,clock,clock,bw,5341_cl_dnn_bw_clock_40_n02708093_5728.JPEG
vgg,5,222,NaN,clock,clock,bw,5342_cl_dnn_bw_clock_40_n04548280_487.JPEG
vgg,5,223,NaN,clock,clock,bw,5343_cl_dnn_bw_clock_40_n02708093_6918.JPEG
vgg,5,224,NaN,clock,clock,bw,5344_cl_dnn_bw_clock_40_n02708093_7941.JPEG
vgg,5,225,NaN,clock,clock,bw,5345_cl_dnn_bw_clock_40_n03196217_8217.JPEG
vgg,5,226,NaN,clock,clock,bw,5346_cl_dnn_bw_clock_40_n04548280_993.JPEG
vgg,5,227,NaN,clock,clock,bw,5347_cl_dnn_bw_clock_40_n02708093_6155.JPEG
vgg,5,228,NaN,clock,clock,bw,5348_cl_dnn_bw_clock_40_n04548280_7321.JPEG
vgg,5,229,NaN,clock,clock,bw,5349_cl_dnn_bw_clock_40_n04548280_3586.JPEG
vgg,5,230,NaN,clock,clock,bw,5350_cl_dnn_bw_clock_40_n02708093_6835.JPEG
vgg,5,231,NaN,clock,clock,bw,5351_cl_dnn_bw_clock_40_n03196217_8526.JPEG
vgg,5,232,NaN,clock,clock,bw,5352_cl_dnn_bw_clock_40_n03196217_2525.JPEG
vgg,5,233,NaN,clock,clock,bw,5353_cl_dnn_bw_clock_40_n04548280_4198.JPEG
vgg,5,234,NaN,clock,clock,bw,5354_cl_dnn_bw_clock_40_n02708093_7015.JPEG
vgg,5,235,NaN,clock,clock,bw,5355_cl_dnn_bw_clock_40_n03196217_2885.JPEG
vgg,5,236,NaN,clock,clock,bw,5356_cl_dnn_bw_clock_40_n02708093_842.JPEG
vgg,5,237,NaN,clock,clock,bw,5357_cl_dnn_bw_clock_40_n03196217_6511.JPEG
vgg,5,238,NaN,clock,clock,bw,5358_cl_dnn_bw_clock_40_n03196217_10717.JPEG
vgg,5,239,NaN,clock,clock,bw,5359_cl_dnn_bw_clock_40_n04548280_5297.JPEG
vgg,5,240,NaN,clock,clock,bw,5360_cl_dnn_bw_clock_40_n04548280_994.JPEG
vgg,5,241,NaN,oven,oven,bw,5361_cl_dnn_bw_oven_40_n04111531_8658.JPEG
vgg,5,242,NaN,oven,oven,bw,5362_cl_dnn_bw_oven_40_n04111531_7252.JPEG
vgg,5,243,NaN,oven,oven,bw,5363_cl_dnn_bw_oven_40_n04111531_4392.JPEG
vgg,5,244,NaN,bottle,oven,bw,5364_cl_dnn_bw_oven_40_n04111531_3181.JPEG
vgg,5,245,NaN,oven,oven,bw,5365_cl_dnn_bw_oven_40_n04111531_1830.JPEG
vgg,5,246,NaN,clock,oven,bw,5366_cl_dnn_bw_oven_40_n04111531_5659.JPEG
vgg,5,247,NaN,oven,oven,bw,5367_cl_dnn_bw_oven_40_n04111531_17853.JPEG
vgg,5,248,NaN,oven,oven,bw,5368_cl_dnn_bw_oven_40_n04111531_3353.JPEG
vgg,5,249,NaN,oven,oven,bw,5369_cl_dnn_bw_oven_40_n04111531_4346.JPEG
vgg,5,250,NaN,oven,oven,bw,5370_cl_dnn_bw_oven_40_n04111531_2213.JPEG
vgg,5,251,NaN,oven,oven,bw,5371_cl_dnn_bw_oven_40_n04111531_5328.JPEG
vgg,5,252,NaN,oven,oven,bw,5372_cl_dnn_bw_oven_40_n04111531_10672.JPEG
vgg,5,253,NaN,chair,oven,bw,5373_cl_dnn_bw_oven_40_n04111531_2189.JPEG
vgg,5,254,NaN,oven,oven,bw,5374_cl_dnn_bw_oven_40_n04111531_11505.JPEG
vgg,5,255,NaN,oven,oven,bw,5375_cl_dnn_bw_oven_40_n04111531_2462.JPEG
vgg,5,256,NaN,oven,oven,bw,5376_cl_dnn_bw_oven_40_n04111531_5897.JPEG
vgg,5,257,NaN,oven,oven,bw,5377_cl_dnn_bw_oven_40_n04111531_22797.JPEG
vgg,5,258,NaN,oven,oven,bw,5378_cl_dnn_bw_oven_40_n04111531_8537.JPEG
vgg,5,259,NaN,oven,oven,bw,5379_cl_dnn_bw_oven_40_n04111531_15947.JPEG
vgg,5,260,NaN,oven,oven,bw,5380_cl_dnn_bw_oven_40_n04111531_7050.JPEG
vgg,5,261,NaN,oven,oven,bw,5381_cl_dnn_bw_oven_40_n04111531_1009.JPEG
vgg,5,262,NaN,knife,oven,bw,5382_cl_dnn_bw_oven_40_n04111531_7064.JPEG
vgg,5,263,NaN,keyboard,oven,bw,5383_cl_dnn_bw_oven_40_n04111531_2066.JPEG
vgg,5,264,NaN,oven,oven,bw,5384_cl_dnn_bw_oven_40_n04111531_18592.JPEG
vgg,5,265,NaN,oven,oven,bw,5385_cl_dnn_bw_oven_40_n04111531_4438.JPEG
vgg,5,266,NaN,oven,oven,bw,5386_cl_dnn_bw_oven_40_n04111531_8963.JPEG
vgg,5,267,NaN,oven,oven,bw,5387_cl_dnn_bw_oven_40_n04111531_584.JPEG
vgg,5,268,NaN,knife,oven,bw,5388_cl_dnn_bw_oven_40_n04111531_14913.JPEG
vgg,5,269,NaN,chair,oven,bw,5389_cl_dnn_bw_oven_40_n04111531_1488.JPEG
vgg,5,270,NaN,oven,oven,bw,5390_cl_dnn_bw_oven_40_n04111531_10667.JPEG
vgg,5,271,NaN,oven,oven,bw,5391_cl_dnn_bw_oven_40_n04111531_10974.JPEG
vgg,5,272,NaN,oven,oven,bw,5392_cl_dnn_bw_oven_40_n04111531_10339.JPEG
vgg,5,273,NaN,oven,oven,bw,5393_cl_dnn_bw_oven_40_n04111531_8330.JPEG
vgg,5,274,NaN,oven,oven,bw,5394_cl_dnn_bw_oven_40_n04111531_3082.JPEG
vgg,5,275,NaN,oven,oven,bw,5395_cl_dnn_bw_oven_40_n04111531_5304.JPEG
vgg,5,276,NaN,oven,oven,bw,5396_cl_dnn_bw_oven_40_n04111531_1945.JPEG
vgg,5,277,NaN,oven,oven,bw,5397_cl_dnn_bw_oven_40_n04111531_17809.JPEG
vgg,5,278,NaN,oven,oven,bw,5398_cl_dnn_bw_oven_40_n04111531_3886.JPEG
vgg,5,279,NaN,oven,oven,bw,5399_cl_dnn_bw_oven_40_n04111531_12788.JPEG
vgg,5,280,NaN,oven,oven,bw,5400_cl_dnn_bw_oven_40_n04111531_892.JPEG
vgg,5,281,NaN,chair,chair,bw,5401_cl_dnn_bw_chair_40_n02791124_3018.JPEG
vgg,5,282,NaN,chair,chair,bw,5402_cl_dnn_bw_chair_40_n03376595_6673.JPEG
vgg,5,283,NaN,chair,chair,bw,5403_cl_dnn_bw_chair_40_n04429376_40894.JPEG
vgg,5,284,NaN,chair,chair,bw,5404_cl_dnn_bw_chair_40_n02791124_5420.JPEG
vgg,5,285,NaN,chair,chair,bw,5405_cl_dnn_bw_chair_40_n03376595_2192.JPEG
vgg,5,286,NaN,chair,chair,bw,5406_cl_dnn_bw_chair_40_n03376595_2807.JPEG
vgg,5,287,NaN,chair,chair,bw,5407_cl_dnn_bw_chair_40_n04429376_9053.JPEG
vgg,5,288,NaN,chair,chair,bw,5408_cl_dnn_bw_chair_40_n03376595_4084.JPEG
vgg,5,289,NaN,chair,chair,bw,5409_cl_dnn_bw_chair_40_n04429376_22376.JPEG
vgg,5,290,NaN,chair,chair,bw,5410_cl_dnn_bw_chair_40_n04429376_17332.JPEG
vgg,5,291,NaN,chair,chair,bw,5411_cl_dnn_bw_chair_40_n04099969_9140.JPEG
vgg,5,292,NaN,chair,chair,bw,5412_cl_dnn_bw_chair_40_n04099969_8567.JPEG
vgg,5,293,NaN,chair,chair,bw,5413_cl_dnn_bw_chair_40_n04099969_3551.JPEG
vgg,5,294,NaN,bottle,chair,bw,5414_cl_dnn_bw_chair_40_n04099969_41668.JPEG
vgg,5,295,NaN,chair,chair,bw,5415_cl_dnn_bw_chair_40_n04429376_27939.JPEG
vgg,5,296,NaN,chair,chair,bw,5416_cl_dnn_bw_chair_40_n02791124_1734.JPEG
vgg,5,297,NaN,chair,chair,bw,5417_cl_dnn_bw_chair_40_n04429376_30249.JPEG
vgg,5,298,NaN,chair,chair,bw,5418_cl_dnn_bw_chair_40_n02791124_13033.JPEG
vgg,5,299,NaN,chair,chair,bw,5419_cl_dnn_bw_chair_40_n04099969_2215.JPEG
vgg,5,300,NaN,chair,chair,bw,5420_cl_dnn_bw_chair_40_n04429376_5542.JPEG
vgg,5,301,NaN,chair,chair,bw,5421_cl_dnn_bw_chair_40_n03376595_7154.JPEG
vgg,5,302,NaN,chair,chair,bw,5422_cl_dnn_bw_chair_40_n04429376_7416.JPEG
vgg,5,303,NaN,chair,chair,bw,5423_cl_dnn_bw_chair_40_n04429376_9116.JPEG
vgg,5,304,NaN,chair,chair,bw,5424_cl_dnn_bw_chair_40_n02791124_3857.JPEG
vgg,5,305,NaN,chair,chair,bw,5425_cl_dnn_bw_chair_40_n04429376_9380.JPEG
vgg,5,306,NaN,chair,chair,bw,5426_cl_dnn_bw_chair_40_n03376595_596.JPEG
vgg,5,307,NaN,chair,chair,bw,5427_cl_dnn_bw_chair_40_n03376595_3021.JPEG
vgg,5,308,NaN,chair,chair,bw,5428_cl_dnn_bw_chair_40_n04099969_18571.JPEG
vgg,5,309,NaN,chair,chair,bw,5429_cl_dnn_bw_chair_40_n04099969_8531.JPEG
vgg,5,310,NaN,chair,chair,bw,5430_cl_dnn_bw_chair_40_n04429376_20045.JPEG
vgg,5,311,NaN,chair,chair,bw,5431_cl_dnn_bw_chair_40_n04429376_25432.JPEG
vgg,5,312,NaN,chair,chair,bw,5432_cl_dnn_bw_chair_40_n02791124_11456.JPEG
vgg,5,313,NaN,chair,chair,bw,5433_cl_dnn_bw_chair_40_n02791124_6936.JPEG
vgg,5,314,NaN,chair,chair,bw,5434_cl_dnn_bw_chair_40_n03376595_2716.JPEG
vgg,5,315,NaN,chair,chair,bw,5435_cl_dnn_bw_chair_40_n02791124_2034.JPEG
vgg,5,316,NaN,chair,chair,bw,5436_cl_dnn_bw_chair_40_n02791124_12839.JPEG
vgg,5,317,NaN,chair,chair,bw,5437_cl_dnn_bw_chair_40_n04099969_34525.JPEG
vgg,5,318,NaN,chair,chair,bw,5438_cl_dnn_bw_chair_40_n04429376_310.JPEG
vgg,5,319,NaN,chair,chair,bw,5439_cl_dnn_bw_chair_40_n02791124_12538.JPEG
vgg,5,320,NaN,chair,chair,bw,5440_cl_dnn_bw_chair_40_n04099969_4971.JPEG
vgg,5,321,NaN,dog,bear,bw,5441_cl_dnn_bw_bear_40_n02133161_1279.JPEG
vgg,5,322,NaN,bear,bear,bw,5442_cl_dnn_bw_bear_40_n02132136_8884.JPEG
vgg,5,323,NaN,bear,bear,bw,5443_cl_dnn_bw_bear_40_n02132136_1709.JPEG
vgg,5,324,NaN,bear,bear,bw,5444_cl_dnn_bw_bear_40_n02132136_12845.JPEG
vgg,5,325,NaN,bear,bear,bw,5445_cl_dnn_bw_bear_40_n02132136_8698.JPEG
vgg,5,326,NaN,bear,bear,bw,5446_cl_dnn_bw_bear_40_n02134418_4918.JPEG
vgg,5,327,NaN,bear,bear,bw,5447_cl_dnn_bw_bear_40_n02133161_8200.JPEG
vgg,5,328,NaN,bear,bear,bw,5448_cl_dnn_bw_bear_40_n02133161_522.JPEG
vgg,5,329,NaN,bear,bear,bw,5449_cl_dnn_bw_bear_40_n02134084_21570.JPEG
vgg,5,330,NaN,bear,bear,bw,5450_cl_dnn_bw_bear_40_n02134084_14736.JPEG
vgg,5,331,NaN,bear,bear,bw,5451_cl_dnn_bw_bear_40_n02134084_7371.JPEG
vgg,5,332,NaN,bear,bear,bw,5452_cl_dnn_bw_bear_40_n02134418_3975.JPEG
vgg,5,333,NaN,bear,bear,bw,5453_cl_dnn_bw_bear_40_n02133161_7000.JPEG
vgg,5,334,NaN,bear,bear,bw,5454_cl_dnn_bw_bear_40_n02134418_2943.JPEG
vgg,5,335,NaN,bear,bear,bw,5455_cl_dnn_bw_bear_40_n02133161_8947.JPEG
vgg,5,336,NaN,bear,bear,bw,5456_cl_dnn_bw_bear_40_n02134418_2967.JPEG
vgg,5,337,NaN,bear,bear,bw,5457_cl_dnn_bw_bear_40_n02133161_4974.JPEG
vgg,5,338,NaN,bear,bear,bw,5458_cl_dnn_bw_bear_40_n02132136_1391.JPEG
vgg,5,339,NaN,bear,bear,bw,5459_cl_dnn_bw_bear_40_n02134418_4790.JPEG
vgg,5,340,NaN,bear,bear,bw,5460_cl_dnn_bw_bear_40_n02134084_3903.JPEG
vgg,5,341,NaN,bear,bear,bw,5461_cl_dnn_bw_bear_40_n02133161_14109.JPEG
vgg,5,342,NaN,bear,bear,bw,5462_cl_dnn_bw_bear_40_n02134418_163.JPEG
vgg,5,343,NaN,dog,bear,bw,5463_cl_dnn_bw_bear_40_n02133161_1148.JPEG
vgg,5,344,NaN,bear,bear,bw,5464_cl_dnn_bw_bear_40_n02134084_12797.JPEG
vgg,5,345,NaN,bear,bear,bw,5465_cl_dnn_bw_bear_40_n02134418_1520.JPEG
vgg,5,346,NaN,bear,bear,bw,5466_cl_dnn_bw_bear_40_n02134084_9562.JPEG
vgg,5,347,NaN,boat,bear,bw,5467_cl_dnn_bw_bear_40_n02134084_13535.JPEG
vgg,5,348,NaN,bear,bear,bw,5468_cl_dnn_bw_bear_40_n02134418_3573.JPEG
vgg,5,349,NaN,bear,bear,bw,5469_cl_dnn_bw_bear_40_n02134418_2398.JPEG
vgg,5,350,NaN,dog,bear,bw,5470_cl_dnn_bw_bear_40_n02134418_5856.JPEG
vgg,5,351,NaN,bear,bear,bw,5471_cl_dnn_bw_bear_40_n02133161_11817.JPEG
vgg,5,352,NaN,bear,bear,bw,5472_cl_dnn_bw_bear_40_n02133161_1844.JPEG
vgg,5,353,NaN,bear,bear,bw,5473_cl_dnn_bw_bear_40_n02134084_4184.JPEG
vgg,5,354,NaN,bear,bear,bw,5474_cl_dnn_bw_bear_40_n02134084_16661.JPEG
vgg,5,355,NaN,bear,bear,bw,5475_cl_dnn_bw_bear_40_n02133161_9583.JPEG
vgg,5,356,NaN,bear,bear,bw,5476_cl_dnn_bw_bear_40_n02134418_47.JPEG
vgg,5,357,NaN,bear,bear,bw,5477_cl_dnn_bw_bear_40_n02134418_2913.JPEG
vgg,5,358,NaN,bear,bear,bw,5478_cl_dnn_bw_bear_40_n02134084_266.JPEG
vgg,5,359,NaN,bear,bear,bw,5479_cl_dnn_bw_bear_40_n02132136_7407.JPEG
vgg,5,360,NaN,bear,bear,bw,5480_cl_dnn_bw_bear_40_n02132136_21830.JPEG
vgg,5,361,NaN,boat,boat,bw,5481_cl_dnn_bw_boat_40_n03662601_6111.JPEG
vgg,5,362,NaN,boat,boat,bw,5482_cl_dnn_bw_boat_40_n02951358_5396.JPEG
vgg,5,363,NaN,boat,boat,bw,5483_cl_dnn_bw_boat_40_n02951358_11231.JPEG
vgg,5,364,NaN,boat,boat,bw,5484_cl_dnn_bw_boat_40_n02951358_30108.JPEG
vgg,5,365,NaN,boat,boat,bw,5485_cl_dnn_bw_boat_40_n04612504_5567.JPEG
vgg,5,366,NaN,boat,boat,bw,5486_cl_dnn_bw_boat_40_n04273569_295.JPEG
vgg,5,367,NaN,boat,boat,bw,5487_cl_dnn_bw_boat_40_n04612504_39743.JPEG
vgg,5,368,NaN,boat,boat,bw,5488_cl_dnn_bw_boat_40_n04273569_16253.JPEG
vgg,5,369,NaN,boat,boat,bw,5489_cl_dnn_bw_boat_40_n03662601_3471.JPEG
vgg,5,370,NaN,boat,boat,bw,5490_cl_dnn_bw_boat_40_n04273569_17964.JPEG
vgg,5,371,NaN,boat,boat,bw,5491_cl_dnn_bw_boat_40_n03662601_32391.JPEG
vgg,5,372,NaN,boat,boat,bw,5492_cl_dnn_bw_boat_40_n03344393_6171.JPEG
vgg,5,373,NaN,boat,boat,bw,5493_cl_dnn_bw_boat_40_n03662601_22301.JPEG
vgg,5,374,NaN,boat,boat,bw,5494_cl_dnn_bw_boat_40_n03662601_23139.JPEG
vgg,5,375,NaN,boat,boat,bw,5495_cl_dnn_bw_boat_40_n04612504_7360.JPEG
vgg,5,376,NaN,boat,boat,bw,5496_cl_dnn_bw_boat_40_n04612504_8284.JPEG
vgg,5,377,NaN,boat,boat,bw,5497_cl_dnn_bw_boat_40_n04273569_15674.JPEG
vgg,5,378,NaN,boat,boat,bw,5498_cl_dnn_bw_boat_40_n04612504_23136.JPEG
vgg,5,379,NaN,boat,boat,bw,5499_cl_dnn_bw_boat_40_n03344393_1537.JPEG
vgg,5,380,NaN,boat,boat,bw,5500_cl_dnn_bw_boat_40_n04273569_2109.JPEG
vgg,5,381,NaN,boat,boat,bw,5501_cl_dnn_bw_boat_40_n03662601_26005.JPEG
vgg,5,382,NaN,boat,boat,bw,5502_cl_dnn_bw_boat_40_n03662601_8944.JPEG
vgg,5,383,NaN,boat,boat,bw,5503_cl_dnn_bw_boat_40_n02951358_11567.JPEG
vgg,5,384,NaN,boat,boat,bw,5504_cl_dnn_bw_boat_40_n03344393_8579.JPEG
vgg,5,385,NaN,boat,boat,bw,5505_cl_dnn_bw_boat_40_n04273569_12318.JPEG
vgg,5,386,NaN,boat,boat,bw,5506_cl_dnn_bw_boat_40_n04273569_8299.JPEG
vgg,5,387,NaN,boat,boat,bw,5507_cl_dnn_bw_boat_40_n04612504_17031.JPEG
vgg,5,388,NaN,boat,boat,bw,5508_cl_dnn_bw_boat_40_n03344393_381.JPEG
vgg,5,389,NaN,boat,boat,bw,5509_cl_dnn_bw_boat_40_n03662601_26396.JPEG
vgg,5,390,NaN,boat,boat,bw,5510_cl_dnn_bw_boat_40_n02951358_12091.JPEG
vgg,5,391,NaN,boat,boat,bw,5511_cl_dnn_bw_boat_40_n03344393_6092.JPEG
vgg,5,392,NaN,boat,boat,bw,5512_cl_dnn_bw_boat_40_n03662601_35596.JPEG
vgg,5,393,NaN,boat,boat,bw,5513_cl_dnn_bw_boat_40_n03662601_2480.JPEG
vgg,5,394,NaN,boat,boat,bw,5514_cl_dnn_bw_boat_40_n04612504_8245.JPEG
vgg,5,395,NaN,boat,boat,bw,5515_cl_dnn_bw_boat_40_n03662601_12960.JPEG
vgg,5,396,NaN,boat,boat,bw,5516_cl_dnn_bw_boat_40_n03662601_2000.JPEG
vgg,5,397,NaN,boat,boat,bw,5517_cl_dnn_bw_boat_40_n03662601_4967.JPEG
vgg,5,398,NaN,boat,boat,bw,5518_cl_dnn_bw_boat_40_n03344393_8545.JPEG
vgg,5,399,NaN,boat,boat,bw,5519_cl_dnn_bw_boat_40_n02951358_30863.JPEG
vgg,5,400,NaN,boat,boat,bw,5520_cl_dnn_bw_boat_40_n04273569_9693.JPEG
vgg,5,401,NaN,cat,cat,bw,5521_cl_dnn_bw_cat_40_n02123597_11981.JPEG
vgg,5,402,NaN,dog,cat,bw,5522_cl_dnn_bw_cat_40_n02123394_4777.JPEG
vgg,5,403,NaN,cat,cat,bw,5523_cl_dnn_bw_cat_40_n02123597_4763.JPEG
vgg,5,404,NaN,cat,cat,bw,5524_cl_dnn_bw_cat_40_n02123045_4300.JPEG
vgg,5,405,NaN,cat,cat,bw,5525_cl_dnn_bw_cat_40_n02123597_5695.JPEG
vgg,5,406,NaN,cat,cat,bw,5526_cl_dnn_bw_cat_40_n02123597_1439.JPEG
vgg,5,407,NaN,cat,cat,bw,5527_cl_dnn_bw_cat_40_n02123394_4178.JPEG
vgg,5,408,NaN,cat,cat,bw,5528_cl_dnn_bw_cat_40_n02123045_7168.JPEG
vgg,5,409,NaN,cat,cat,bw,5529_cl_dnn_bw_cat_40_n02123045_442.JPEG
vgg,5,410,NaN,cat,cat,bw,5530_cl_dnn_bw_cat_40_n02124075_14390.JPEG
vgg,5,411,NaN,cat,cat,bw,5531_cl_dnn_bw_cat_40_n02124075_4247.JPEG
vgg,5,412,NaN,cat,cat,bw,5532_cl_dnn_bw_cat_40_n02123394_1904.JPEG
vgg,5,413,NaN,cat,cat,bw,5533_cl_dnn_bw_cat_40_n02125311_16745.JPEG
vgg,5,414,NaN,cat,cat,bw,5534_cl_dnn_bw_cat_40_n02123394_7731.JPEG
vgg,5,415,NaN,cat,cat,bw,5535_cl_dnn_bw_cat_40_n02123159_1359.JPEG
vgg,5,416,NaN,cat,cat,bw,5536_cl_dnn_bw_cat_40_n02123159_6041.JPEG
vgg,5,417,NaN,cat,cat,bw,5537_cl_dnn_bw_cat_40_n02123394_7614.JPEG
vgg,5,418,NaN,dog,cat,bw,5538_cl_dnn_bw_cat_40_n02123597_6702.JPEG
vgg,5,419,NaN,cat,cat,bw,5539_cl_dnn_bw_cat_40_n02124075_7477.JPEG
vgg,5,420,NaN,cat,cat,bw,5540_cl_dnn_bw_cat_40_n02123045_12206.JPEG
vgg,5,421,NaN,cat,cat,bw,5541_cl_dnn_bw_cat_40_n02124075_8018.JPEG
vgg,5,422,NaN,cat,cat,bw,5542_cl_dnn_bw_cat_40_n02123045_10473.JPEG
vgg,5,423,NaN,cat,cat,bw,5543_cl_dnn_bw_cat_40_n02123045_11866.JPEG
vgg,5,424,NaN,cat,cat,bw,5544_cl_dnn_bw_cat_40_n02124075_604.JPEG
vgg,5,425,NaN,cat,cat,bw,5545_cl_dnn_bw_cat_40_n02125311_4032.JPEG
vgg,5,426,NaN,cat,cat,bw,5546_cl_dnn_bw_cat_40_n02124075_15107.JPEG
vgg,5,427,NaN,cat,cat,bw,5547_cl_dnn_bw_cat_40_n02123597_12794.JPEG
vgg,5,428,NaN,cat,cat,bw,5548_cl_dnn_bw_cat_40_n02123159_1580.JPEG
vgg,5,429,NaN,cat,cat,bw,5549_cl_dnn_bw_cat_40_n02124075_3324.JPEG
vgg,5,430,NaN,cat,cat,bw,5550_cl_dnn_bw_cat_40_n02123394_1606.JPEG
vgg,5,431,NaN,cat,cat,bw,5551_cl_dnn_bw_cat_40_n02125311_57758.JPEG
vgg,5,432,NaN,cat,cat,bw,5552_cl_dnn_bw_cat_40_n02123394_6070.JPEG
vgg,5,433,NaN,cat,cat,bw,5553_cl_dnn_bw_cat_40_n02123159_7218.JPEG
vgg,5,434,NaN,dog,cat,bw,5554_cl_dnn_bw_cat_40_n02123394_1625.JPEG
vgg,5,435,NaN,cat,cat,bw,5555_cl_dnn_bw_cat_40_n02123045_10337.JPEG
vgg,5,436,NaN,chair,cat,bw,5556_cl_dnn_bw_cat_40_n02123159_2535.JPEG
vgg,5,437,NaN,cat,cat,bw,5557_cl_dnn_bw_cat_40_n02123394_4698.JPEG
vgg,5,438,NaN,cat,cat,bw,5558_cl_dnn_bw_cat_40_n02123394_1069.JPEG
vgg,5,439,NaN,cat,cat,bw,5559_cl_dnn_bw_cat_40_n02125311_29041.JPEG
vgg,5,440,NaN,dog,cat,bw,5560_cl_dnn_bw_cat_40_n02124075_8497.JPEG
vgg,5,441,NaN,bottle,bottle,bw,5561_cl_dnn_bw_bottle_40_n03983396_5458.JPEG
vgg,5,442,NaN,bottle,bottle,bw,5562_cl_dnn_bw_bottle_40_n04560804_783.JPEG
vgg,5,443,NaN,bottle,bottle,bw,5563_cl_dnn_bw_bottle_40_n04579145_1228.JPEG
vgg,5,444,NaN,bottle,bottle,bw,5564_cl_dnn_bw_bottle_40_n04591713_3441.JPEG
vgg,5,445,NaN,bottle,bottle,bw,5565_cl_dnn_bw_bottle_40_n02823428_6059.JPEG
vgg,5,446,NaN,bottle,bottle,bw,5566_cl_dnn_bw_bottle_40_n04579145_7403.JPEG
vgg,5,447,NaN,bottle,bottle,bw,5567_cl_dnn_bw_bottle_40_n03937543_4628.JPEG
vgg,5,448,NaN,bottle,bottle,bw,5568_cl_dnn_bw_bottle_40_n02823428_840.JPEG
vgg,5,449,NaN,bottle,bottle,bw,5569_cl_dnn_bw_bottle_40_n03937543_277.JPEG
vgg,5,450,NaN,bottle,bottle,bw,5570_cl_dnn_bw_bottle_40_n03983396_3526.JPEG
vgg,5,451,NaN,bottle,bottle,bw,5571_cl_dnn_bw_bottle_40_n04591713_1713.JPEG
vgg,5,452,NaN,bottle,bottle,bw,5572_cl_dnn_bw_bottle_40_n03983396_8787.JPEG
vgg,5,453,NaN,oven,bottle,bw,5573_cl_dnn_bw_bottle_40_n04560804_2401.JPEG
vgg,5,454,NaN,bottle,bottle,bw,5574_cl_dnn_bw_bottle_40_n02823428_4980.JPEG
vgg,5,455,NaN,bottle,bottle,bw,5575_cl_dnn_bw_bottle_40_n04579145_2615.JPEG
vgg,5,456,NaN,bottle,bottle,bw,5576_cl_dnn_bw_bottle_40_n04560804_6106.JPEG
vgg,5,457,NaN,bottle,bottle,bw,5577_cl_dnn_bw_bottle_40_n03983396_12759.JPEG
vgg,5,458,NaN,bottle,bottle,bw,5578_cl_dnn_bw_bottle_40_n04557648_9672.JPEG
vgg,5,459,NaN,bottle,bottle,bw,5579_cl_dnn_bw_bottle_40_n04560804_168.JPEG
vgg,5,460,NaN,bottle,bottle,bw,5580_cl_dnn_bw_bottle_40_n04591713_5559.JPEG
vgg,5,461,NaN,bottle,bottle,bw,5581_cl_dnn_bw_bottle_40_n04557648_6282.JPEG
vgg,5,462,NaN,bottle,bottle,bw,5582_cl_dnn_bw_bottle_40_n04560804_16022.JPEG
vgg,5,463,NaN,bottle,bottle,bw,5583_cl_dnn_bw_bottle_40_n03983396_12522.JPEG
vgg,5,464,NaN,dog,bottle,bw,5584_cl_dnn_bw_bottle_40_n04557648_1192.JPEG
vgg,5,465,NaN,bottle,bottle,bw,5585_cl_dnn_bw_bottle_40_n04591713_5503.JPEG
vgg,5,466,NaN,bottle,bottle,bw,5586_cl_dnn_bw_bottle_40_n04560804_5951.JPEG
vgg,5,467,NaN,bottle,bottle,bw,5587_cl_dnn_bw_bottle_40_n04560804_15136.JPEG
vgg,5,468,NaN,bottle,bottle,bw,5588_cl_dnn_bw_bottle_40_n04560804_14088.JPEG
vgg,5,469,NaN,bottle,bottle,bw,5589_cl_dnn_bw_bottle_40_n04557648_3435.JPEG
vgg,5,470,NaN,bottle,bottle,bw,5590_cl_dnn_bw_bottle_40_n04557648_4974.JPEG
vgg,5,471,NaN,bottle,bottle,bw,5591_cl_dnn_bw_bottle_40_n04579145_1049.JPEG
vgg,5,472,NaN,bottle,bottle,bw,5592_cl_dnn_bw_bottle_40_n04557648_2364.JPEG
vgg,5,473,NaN,bottle,bottle,bw,5593_cl_dnn_bw_bottle_40_n04557648_2826.JPEG
vgg,5,474,NaN,bottle,bottle,bw,5594_cl_dnn_bw_bottle_40_n02823428_295.JPEG
vgg,5,475,NaN,bottle,bottle,bw,5595_cl_dnn_bw_bottle_40_n04560804_11900.JPEG
vgg,5,476,NaN,bottle,bottle,bw,5596_cl_dnn_bw_bottle_40_n03937543_146.JPEG
vgg,5,477,NaN,bottle,bottle,bw,5597_cl_dnn_bw_bottle_40_n04579145_2485.JPEG
vgg,5,478,NaN,bottle,bottle,bw,5598_cl_dnn_bw_bottle_40_n04591713_4599.JPEG
vgg,5,479,NaN,clock,bottle,bw,5599_cl_dnn_bw_bottle_40_n04560804_15496.JPEG
vgg,5,480,NaN,bottle,bottle,bw,5600_cl_dnn_bw_bottle_40_n04560804_7346.JPEG
vgg,5,481,NaN,truck,truck,bw,5601_cl_dnn_bw_truck_40_n03417042_14037.JPEG
vgg,5,482,NaN,truck,truck,bw,5602_cl_dnn_bw_truck_40_n03417042_27320.JPEG
vgg,5,483,NaN,truck,truck,bw,5603_cl_dnn_bw_truck_40_n03796401_19997.JPEG
vgg,5,484,NaN,truck,truck,bw,5604_cl_dnn_bw_truck_40_n03417042_9620.JPEG
vgg,5,485,NaN,truck,truck,bw,5605_cl_dnn_bw_truck_40_n03796401_13445.JPEG
vgg,5,486,NaN,truck,truck,bw,5606_cl_dnn_bw_truck_40_n03417042_5381.JPEG
vgg,5,487,NaN,truck,truck,bw,5607_cl_dnn_bw_truck_40_n03796401_5152.JPEG
vgg,5,488,NaN,truck,truck,bw,5608_cl_dnn_bw_truck_40_n04467665_69063.JPEG
vgg,5,489,NaN,truck,truck,bw,5609_cl_dnn_bw_truck_40_n03417042_8953.JPEG
vgg,5,490,NaN,truck,truck,bw,5610_cl_dnn_bw_truck_40_n03796401_6928.JPEG
vgg,5,491,NaN,truck,truck,bw,5611_cl_dnn_bw_truck_40_n03417042_6734.JPEG
vgg,5,492,NaN,truck,truck,bw,5612_cl_dnn_bw_truck_40_n03417042_8872.JPEG
vgg,5,493,NaN,truck,truck,bw,5613_cl_dnn_bw_truck_40_n04467665_23218.JPEG
vgg,5,494,NaN,truck,truck,bw,5614_cl_dnn_bw_truck_40_n04467665_242.JPEG
vgg,5,495,NaN,truck,truck,bw,5615_cl_dnn_bw_truck_40_n04467665_67078.JPEG
vgg,5,496,NaN,truck,truck,bw,5616_cl_dnn_bw_truck_40_n03796401_22395.JPEG
vgg,5,497,NaN,truck,truck,bw,5617_cl_dnn_bw_truck_40_n03417042_9829.JPEG
vgg,5,498,NaN,truck,truck,bw,5618_cl_dnn_bw_truck_40_n03417042_15903.JPEG
vgg,5,499,NaN,truck,truck,bw,5619_cl_dnn_bw_truck_40_n04467665_57.JPEG
vgg,5,500,NaN,truck,truck,bw,5620_cl_dnn_bw_truck_40_n03417042_18589.JPEG
vgg,5,501,NaN,truck,truck,bw,5621_cl_dnn_bw_truck_40_n03417042_13066.JPEG
vgg,5,502,NaN,truck,truck,bw,5622_cl_dnn_bw_truck_40_n03417042_21727.JPEG
vgg,5,503,NaN,truck,truck,bw,5623_cl_dnn_bw_truck_40_n03417042_3886.JPEG
vgg,5,504,NaN,truck,truck,bw,5624_cl_dnn_bw_truck_40_n03796401_5933.JPEG
vgg,5,505,NaN,truck,truck,bw,5625_cl_dnn_bw_truck_40_n04467665_23775.JPEG
vgg,5,506,NaN,truck,truck,bw,5626_cl_dnn_bw_truck_40_n03417042_9693.JPEG
vgg,5,507,NaN,truck,truck,bw,5627_cl_dnn_bw_truck_40_n03417042_1149.JPEG
vgg,5,508,NaN,truck,truck,bw,5628_cl_dnn_bw_truck_40_n03417042_6517.JPEG
vgg,5,509,NaN,airplane,truck,bw,5629_cl_dnn_bw_truck_40_n04467665_34228.JPEG
vgg,5,510,NaN,truck,truck,bw,5630_cl_dnn_bw_truck_40_n03417042_19472.JPEG
vgg,5,511,NaN,truck,truck,bw,5631_cl_dnn_bw_truck_40_n03796401_25521.JPEG
vgg,5,512,NaN,truck,truck,bw,5632_cl_dnn_bw_truck_40_n04467665_21379.JPEG
vgg,5,513,NaN,truck,truck,bw,5633_cl_dnn_bw_truck_40_n04467665_23173.JPEG
vgg,5,514,NaN,truck,truck,bw,5634_cl_dnn_bw_truck_40_n03417042_22973.JPEG
vgg,5,515,NaN,truck,truck,bw,5635_cl_dnn_bw_truck_40_n03417042_4407.JPEG
vgg,5,516,NaN,truck,truck,bw,5636_cl_dnn_bw_truck_40_n03417042_6033.JPEG
vgg,5,517,NaN,truck,truck,bw,5637_cl_dnn_bw_truck_40_n04467665_32276.JPEG
vgg,5,518,NaN,truck,truck,bw,5638_cl_dnn_bw_truck_40_n03417042_29480.JPEG
vgg,5,519,NaN,truck,truck,bw,5639_cl_dnn_bw_truck_40_n04467665_21266.JPEG
vgg,5,520,NaN,truck,truck,bw,5640_cl_dnn_bw_truck_40_n03417042_19650.JPEG
vgg,5,521,NaN,car,car,bw,5641_cl_dnn_bw_car_40_n04285008_8959.JPEG
vgg,5,522,NaN,car,car,bw,5642_cl_dnn_bw_car_40_n03100240_8045.JPEG
vgg,5,523,NaN,car,car,bw,5643_cl_dnn_bw_car_40_n03100240_22280.JPEG
vgg,5,524,NaN,car,car,bw,5644_cl_dnn_bw_car_40_n02814533_20806.JPEG
vgg,5,525,NaN,car,car,bw,5645_cl_dnn_bw_car_40_n02814533_40380.JPEG
vgg,5,526,NaN,car,car,bw,5646_cl_dnn_bw_car_40_n03100240_16803.JPEG
vgg,5,527,NaN,car,car,bw,5647_cl_dnn_bw_car_40_n04285008_7826.JPEG
vgg,5,528,NaN,car,car,bw,5648_cl_dnn_bw_car_40_n02814533_93698.JPEG
vgg,5,529,NaN,truck,car,bw,5649_cl_dnn_bw_car_40_n04285008_1809.JPEG
vgg,5,530,NaN,car,car,bw,5650_cl_dnn_bw_car_40_n03100240_14873.JPEG
vgg,5,531,NaN,car,car,bw,5651_cl_dnn_bw_car_40_n02814533_22847.JPEG
vgg,5,532,NaN,car,car,bw,5652_cl_dnn_bw_car_40_n02814533_4092.JPEG
vgg,5,533,NaN,car,car,bw,5653_cl_dnn_bw_car_40_n02814533_4087.JPEG
vgg,5,534,NaN,car,car,bw,5654_cl_dnn_bw_car_40_n03100240_2562.JPEG
vgg,5,535,NaN,car,car,bw,5655_cl_dnn_bw_car_40_n04285008_8451.JPEG
vgg,5,536,NaN,car,car,bw,5656_cl_dnn_bw_car_40_n03100240_9105.JPEG
vgg,5,537,NaN,car,car,bw,5657_cl_dnn_bw_car_40_n04285008_15071.JPEG
vgg,5,538,NaN,car,car,bw,5658_cl_dnn_bw_car_40_n04285008_16604.JPEG
vgg,5,539,NaN,car,car,bw,5659_cl_dnn_bw_car_40_n02814533_32924.JPEG
vgg,5,540,NaN,car,car,bw,5660_cl_dnn_bw_car_40_n03100240_3528.JPEG
vgg,5,541,NaN,car,car,bw,5661_cl_dnn_bw_car_40_n02814533_78691.JPEG
vgg,5,542,NaN,car,car,bw,5662_cl_dnn_bw_car_40_n03100240_19475.JPEG
vgg,5,543,NaN,car,car,bw,5663_cl_dnn_bw_car_40_n02814533_725.JPEG
vgg,5,544,NaN,car,car,bw,5664_cl_dnn_bw_car_40_n04285008_9317.JPEG
vgg,5,545,NaN,car,car,bw,5665_cl_dnn_bw_car_40_n02814533_10135.JPEG
vgg,5,546,NaN,car,car,bw,5666_cl_dnn_bw_car_40_n02814533_51701.JPEG
vgg,5,547,NaN,car,car,bw,5667_cl_dnn_bw_car_40_n03100240_11514.JPEG
vgg,5,548,NaN,car,car,bw,5668_cl_dnn_bw_car_40_n02814533_34886.JPEG
vgg,5,549,NaN,car,car,bw,5669_cl_dnn_bw_car_40_n04285008_5924.JPEG
vgg,5,550,NaN,car,car,bw,5670_cl_dnn_bw_car_40_n02814533_52627.JPEG
vgg,5,551,NaN,car,car,bw,5671_cl_dnn_bw_car_40_n03100240_5172.JPEG
vgg,5,552,NaN,car,car,bw,5672_cl_dnn_bw_car_40_n02814533_8881.JPEG
vgg,5,553,NaN,car,car,bw,5673_cl_dnn_bw_car_40_n02814533_35745.JPEG
vgg,5,554,NaN,car,car,bw,5674_cl_dnn_bw_car_40_n04285008_7511.JPEG
vgg,5,555,NaN,car,car,bw,5675_cl_dnn_bw_car_40_n03100240_5550.JPEG
vgg,5,556,NaN,car,car,bw,5676_cl_dnn_bw_car_40_n02814533_31323.JPEG
vgg,5,557,NaN,car,car,bw,5677_cl_dnn_bw_car_40_n04285008_61.JPEG
vgg,5,558,NaN,car,car,bw,5678_cl_dnn_bw_car_40_n04285008_5070.JPEG
vgg,5,559,NaN,car,car,bw,5679_cl_dnn_bw_car_40_n03100240_6294.JPEG
vgg,5,560,NaN,car,car,bw,5680_cl_dnn_bw_car_40_n03100240_1446.JPEG
vgg,5,561,NaN,bird,bird,bw,5681_cl_dnn_bw_bird_40_n01796340_5267.JPEG
vgg,5,562,NaN,bird,bird,bw,5682_cl_dnn_bw_bird_40_n02056570_3562.JPEG
vgg,5,563,NaN,bird,bird,bw,5683_cl_dnn_bw_bird_40_n01829413_8722.JPEG
vgg,5,564,NaN,bird,bird,bw,5684_cl_dnn_bw_bird_40_n02007558_6159.JPEG
vgg,5,565,NaN,bird,bird,bw,5685_cl_dnn_bw_bird_40_n02033041_1078.JPEG
vgg,5,566,NaN,bird,bird,bw,5686_cl_dnn_bw_bird_40_n01582220_8788.JPEG
vgg,5,567,NaN,bird,bird,bw,5687_cl_dnn_bw_bird_40_n02009912_2693.JPEG
vgg,5,568,NaN,bird,bird,bw,5688_cl_dnn_bw_bird_40_n01817953_6178.JPEG
vgg,5,569,NaN,bird,bird,bw,5689_cl_dnn_bw_bird_40_n02025239_18436.JPEG
vgg,5,570,NaN,bird,bird,bw,5690_cl_dnn_bw_bird_40_n01833805_8398.JPEG
vgg,5,571,NaN,bird,bird,bw,5691_cl_dnn_bw_bird_40_n02009912_3791.JPEG
vgg,5,572,NaN,bird,bird,bw,5692_cl_dnn_bw_bird_40_n01843065_4433.JPEG
vgg,5,573,NaN,bird,bird,bw,5693_cl_dnn_bw_bird_40_n01592084_13819.JPEG
vgg,5,574,NaN,bird,bird,bw,5694_cl_dnn_bw_bird_40_n01843383_4857.JPEG
vgg,5,575,NaN,bird,bird,bw,5695_cl_dnn_bw_bird_40_n02002724_7941.JPEG
vgg,5,576,NaN,bird,bird,bw,5696_cl_dnn_bw_bird_40_n01530575_328.JPEG
vgg,5,577,NaN,bird,bird,bw,5697_cl_dnn_bw_bird_40_n02013706_1734.JPEG
vgg,5,578,NaN,bird,bird,bw,5698_cl_dnn_bw_bird_40_n01614925_27697.JPEG
vgg,5,579,NaN,bird,bird,bw,5699_cl_dnn_bw_bird_40_n02007558_11552.JPEG
vgg,5,580,NaN,bird,bird,bw,5700_cl_dnn_bw_bird_40_n01818515_5147.JPEG
vgg,5,581,NaN,bird,bird,bw,5701_cl_dnn_bw_bird_40_n02007558_11334.JPEG
vgg,5,582,NaN,bird,bird,bw,5702_cl_dnn_bw_bird_40_n02056570_1455.JPEG
vgg,5,583,NaN,bird,bird,bw,5703_cl_dnn_bw_bird_40_n01601694_12156.JPEG
vgg,5,584,NaN,bird,bird,bw,5704_cl_dnn_bw_bird_40_n01828970_1744.JPEG
vgg,5,585,NaN,bird,bird,bw,5705_cl_dnn_bw_bird_40_n01820546_6482.JPEG
vgg,5,586,NaN,bird,bird,bw,5706_cl_dnn_bw_bird_40_n01558993_14328.JPEG
vgg,5,587,NaN,bird,bird,bw,5707_cl_dnn_bw_bird_40_n01843065_7025.JPEG
vgg,5,588,NaN,bird,bird,bw,5708_cl_dnn_bw_bird_40_n01820546_10861.JPEG
vgg,5,589,NaN,bird,bird,bw,5709_cl_dnn_bw_bird_40_n01824575_2746.JPEG
vgg,5,590,NaN,bird,bird,bw,5710_cl_dnn_bw_bird_40_n01843383_424.JPEG
vgg,5,591,NaN,bird,bird,bw,5711_cl_dnn_bw_bird_40_n01820546_6793.JPEG
vgg,5,592,NaN,bird,bird,bw,5712_cl_dnn_bw_bird_40_n02027492_5373.JPEG
vgg,5,593,NaN,bird,bird,bw,5713_cl_dnn_bw_bird_40_n02037110_946.JPEG
vgg,5,594,NaN,bird,bird,bw,5714_cl_dnn_bw_bird_40_n01530575_9523.JPEG
vgg,5,595,NaN,bird,bird,bw,5715_cl_dnn_bw_bird_40_n02028035_5916.JPEG
vgg,5,596,NaN,bird,bird,bw,5716_cl_dnn_bw_bird_40_n01616318_1385.JPEG
vgg,5,597,NaN,chair,bird,bw,5717_cl_dnn_bw_bird_40_n01833805_4297.JPEG
vgg,5,598,NaN,bird,bird,bw,5718_cl_dnn_bw_bird_40_n02027492_6637.JPEG
vgg,5,599,NaN,bird,bird,bw,5719_cl_dnn_bw_bird_40_n01614925_3030.JPEG
vgg,5,600,NaN,bird,bird,bw,5720_cl_dnn_bw_bird_40_n01532829_16689.JPEG
vgg,5,601,NaN,dog,dog,bw,5721_cl_dnn_bw_dog_40_n02104029_5330.JPEG
vgg,5,602,NaN,dog,dog,bw,5722_cl_dnn_bw_dog_40_n02086079_29909.JPEG
vgg,5,603,NaN,dog,dog,bw,5723_cl_dnn_bw_dog_40_n02102177_1123.JPEG
vgg,5,604,NaN,dog,dog,bw,5724_cl_dnn_bw_dog_40_n02105505_5123.JPEG
vgg,5,605,NaN,dog,dog,bw,5725_cl_dnn_bw_dog_40_n02110063_7725.JPEG
vgg,5,606,NaN,dog,dog,bw,5726_cl_dnn_bw_dog_40_n02088632_7301.JPEG
vgg,5,607,NaN,dog,dog,bw,5727_cl_dnn_bw_dog_40_n02093428_18165.JPEG
vgg,5,608,NaN,dog,dog,bw,5728_cl_dnn_bw_dog_40_n02093428_12501.JPEG
vgg,5,609,NaN,dog,dog,bw,5729_cl_dnn_bw_dog_40_n02090379_1806.JPEG
vgg,5,610,NaN,dog,dog,bw,5730_cl_dnn_bw_dog_40_n02099849_5947.JPEG
vgg,5,611,NaN,dog,dog,bw,5731_cl_dnn_bw_dog_40_n02094258_135.JPEG
vgg,5,612,NaN,dog,dog,bw,5732_cl_dnn_bw_dog_40_n02086910_881.JPEG
vgg,5,613,NaN,dog,dog,bw,5733_cl_dnn_bw_dog_40_n02093991_1501.JPEG
vgg,5,614,NaN,dog,dog,bw,5734_cl_dnn_bw_dog_40_n02097130_6056.JPEG
vgg,5,615,NaN,dog,dog,bw,5735_cl_dnn_bw_dog_40_n02097658_4370.JPEG
vgg,5,616,NaN,dog,dog,bw,5736_cl_dnn_bw_dog_40_n02113023_5995.JPEG
vgg,5,617,NaN,dog,dog,bw,5737_cl_dnn_bw_dog_40_n02088238_12552.JPEG
vgg,5,618,NaN,dog,dog,bw,5738_cl_dnn_bw_dog_40_n02086910_15055.JPEG
vgg,5,619,NaN,dog,dog,bw,5739_cl_dnn_bw_dog_40_n02098105_3579.JPEG
vgg,5,620,NaN,dog,dog,bw,5740_cl_dnn_bw_dog_40_n02111129_1206.JPEG
vgg,5,621,NaN,dog,dog,bw,5741_cl_dnn_bw_dog_40_n02095570_10617.JPEG
vgg,5,622,NaN,dog,dog,bw,5742_cl_dnn_bw_dog_40_n02107908_5306.JPEG
vgg,5,623,NaN,dog,dog,bw,5743_cl_dnn_bw_dog_40_n02099267_7147.JPEG
vgg,5,624,NaN,dog,dog,bw,5744_cl_dnn_bw_dog_40_n02086910_8590.JPEG
vgg,5,625,NaN,dog,dog,bw,5745_cl_dnn_bw_dog_40_n02102480_680.JPEG
vgg,5,626,NaN,dog,dog,bw,5746_cl_dnn_bw_dog_40_n02101388_21741.JPEG
vgg,5,627,NaN,dog,dog,bw,5747_cl_dnn_bw_dog_40_n02096437_3289.JPEG
vgg,5,628,NaN,dog,dog,bw,5748_cl_dnn_bw_dog_40_n02108000_5361.JPEG
vgg,5,629,NaN,dog,dog,bw,5749_cl_dnn_bw_dog_40_n02086079_2848.JPEG
vgg,5,630,NaN,dog,dog,bw,5750_cl_dnn_bw_dog_40_n02102177_6206.JPEG
vgg,5,631,NaN,dog,dog,bw,5751_cl_dnn_bw_dog_40_n02091134_5830.JPEG
vgg,5,632,NaN,dog,dog,bw,5752_cl_dnn_bw_dog_40_n02110063_11086.JPEG
vgg,5,633,NaN,dog,dog,bw,5753_cl_dnn_bw_dog_40_n02101556_9317.JPEG
vgg,5,634,NaN,dog,dog,bw,5754_cl_dnn_bw_dog_40_n02091244_6726.JPEG
vgg,5,635,NaN,dog,dog,bw,5755_cl_dnn_bw_dog_40_n02107908_10691.JPEG
vgg,5,636,NaN,dog,dog,bw,5756_cl_dnn_bw_dog_40_n02101556_3239.JPEG
vgg,5,637,NaN,dog,dog,bw,5757_cl_dnn_bw_dog_40_n02105056_6464.JPEG
vgg,5,638,NaN,dog,dog,bw,5758_cl_dnn_bw_dog_40_n02107683_2240.JPEG
vgg,5,639,NaN,dog,dog,bw,5759_cl_dnn_bw_dog_40_n02106166_10022.JPEG
vgg,5,640,NaN,dog,dog,bw,5760_cl_dnn_bw_dog_40_n02088364_4685.JPEG
vgg,5,641,NaN,knife,knife,cr,5761_cl_dnn_cr_knife_40_n03041632_11495.JPEG
vgg,5,642,NaN,knife,knife,cr,5762_cl_dnn_cr_knife_40_n03041632_4279.JPEG
vgg,5,643,NaN,knife,knife,cr,5763_cl_dnn_cr_knife_40_n03041632_30958.JPEG
vgg,5,644,NaN,knife,knife,cr,5764_cl_dnn_cr_knife_40_n03041632_15754.JPEG
vgg,5,645,NaN,knife,knife,cr,5765_cl_dnn_cr_knife_40_n03041632_46103.JPEG
vgg,5,646,NaN,knife,knife,cr,5766_cl_dnn_cr_knife_40_n03041632_37618.JPEG
vgg,5,647,NaN,knife,knife,cr,5767_cl_dnn_cr_knife_40_n03041632_21590.JPEG
vgg,5,648,NaN,knife,knife,cr,5768_cl_dnn_cr_knife_40_n03041632_33225.JPEG
vgg,5,649,NaN,knife,knife,cr,5769_cl_dnn_cr_knife_40_n03041632_90407.JPEG
vgg,5,650,NaN,knife,knife,cr,5770_cl_dnn_cr_knife_40_n03041632_44269.JPEG
vgg,5,651,NaN,knife,knife,cr,5771_cl_dnn_cr_knife_40_n03041632_18601.JPEG
vgg,5,652,NaN,clock,knife,cr,5772_cl_dnn_cr_knife_40_n03041632_2184.JPEG
vgg,5,653,NaN,knife,knife,cr,5773_cl_dnn_cr_knife_40_n03041632_11326.JPEG
vgg,5,654,NaN,knife,knife,cr,5774_cl_dnn_cr_knife_40_n03041632_965.JPEG
vgg,5,655,NaN,knife,knife,cr,5775_cl_dnn_cr_knife_40_n03041632_18468.JPEG
vgg,5,656,NaN,knife,knife,cr,5776_cl_dnn_cr_knife_40_n03041632_36235.JPEG
vgg,5,657,NaN,knife,knife,cr,5777_cl_dnn_cr_knife_40_n03041632_2973.JPEG
vgg,5,658,NaN,knife,knife,cr,5778_cl_dnn_cr_knife_40_n03041632_14766.JPEG
vgg,5,659,NaN,knife,knife,cr,5779_cl_dnn_cr_knife_40_n03041632_1884.JPEG
vgg,5,660,NaN,knife,knife,cr,5780_cl_dnn_cr_knife_40_n03041632_43634.JPEG
vgg,5,661,NaN,knife,knife,cr,5781_cl_dnn_cr_knife_40_n03041632_2546.JPEG
vgg,5,662,NaN,dog,knife,cr,5782_cl_dnn_cr_knife_40_n03041632_25498.JPEG
vgg,5,663,NaN,knife,knife,cr,5783_cl_dnn_cr_knife_40_n03041632_44212.JPEG
vgg,5,664,NaN,knife,knife,cr,5784_cl_dnn_cr_knife_40_n03041632_11358.JPEG
vgg,5,665,NaN,knife,knife,cr,5785_cl_dnn_cr_knife_40_n03041632_23087.JPEG
vgg,5,666,NaN,knife,knife,cr,5786_cl_dnn_cr_knife_40_n03041632_55083.JPEG
vgg,5,667,NaN,knife,knife,cr,5787_cl_dnn_cr_knife_40_n03041632_34676.JPEG
vgg,5,668,NaN,knife,knife,cr,5788_cl_dnn_cr_knife_40_n03041632_23667.JPEG
vgg,5,669,NaN,knife,knife,cr,5789_cl_dnn_cr_knife_40_n03041632_12130.JPEG
vgg,5,670,NaN,knife,knife,cr,5790_cl_dnn_cr_knife_40_n03041632_33268.JPEG
vgg,5,671,NaN,knife,knife,cr,5791_cl_dnn_cr_knife_40_n03041632_7064.JPEG
vgg,5,672,NaN,knife,knife,cr,5792_cl_dnn_cr_knife_40_n03041632_38540.JPEG
vgg,5,673,NaN,knife,knife,cr,5793_cl_dnn_cr_knife_40_n03041632_45775.JPEG
vgg,5,674,NaN,knife,knife,cr,5794_cl_dnn_cr_knife_40_n03041632_101673.JPEG
vgg,5,675,NaN,knife,knife,cr,5795_cl_dnn_cr_knife_40_n03041632_48151.JPEG
vgg,5,676,NaN,knife,knife,cr,5796_cl_dnn_cr_knife_40_n03041632_22241.JPEG
vgg,5,677,NaN,knife,knife,cr,5797_cl_dnn_cr_knife_40_n03041632_27879.JPEG
vgg,5,678,NaN,knife,knife,cr,5798_cl_dnn_cr_knife_40_n03041632_10000.JPEG
vgg,5,679,NaN,knife,knife,cr,5799_cl_dnn_cr_knife_40_n03041632_37536.JPEG
vgg,5,680,NaN,knife,knife,cr,5800_cl_dnn_cr_knife_40_n03041632_51256.JPEG
vgg,5,681,NaN,keyboard,keyboard,cr,5801_cl_dnn_cr_keyboard_40_n04505470_4887.JPEG
vgg,5,682,NaN,keyboard,keyboard,cr,5802_cl_dnn_cr_keyboard_40_n03085013_20220.JPEG
vgg,5,683,NaN,keyboard,keyboard,cr,5803_cl_dnn_cr_keyboard_40_n03085013_21886.JPEG
vgg,5,684,NaN,keyboard,keyboard,cr,5804_cl_dnn_cr_keyboard_40_n04505470_2048.JPEG
vgg,5,685,NaN,keyboard,keyboard,cr,5805_cl_dnn_cr_keyboard_40_n03085013_6834.JPEG
vgg,5,686,NaN,keyboard,keyboard,cr,5806_cl_dnn_cr_keyboard_40_n04505470_1831.JPEG
vgg,5,687,NaN,keyboard,keyboard,cr,5807_cl_dnn_cr_keyboard_40_n04505470_3064.JPEG
vgg,5,688,NaN,keyboard,keyboard,cr,5808_cl_dnn_cr_keyboard_40_n04505470_1914.JPEG
vgg,5,689,NaN,keyboard,keyboard,cr,5809_cl_dnn_cr_keyboard_40_n04505470_5060.JPEG
vgg,5,690,NaN,keyboard,keyboard,cr,5810_cl_dnn_cr_keyboard_40_n03085013_19618.JPEG
vgg,5,691,NaN,keyboard,keyboard,cr,5811_cl_dnn_cr_keyboard_40_n04505470_255.JPEG
vgg,5,692,NaN,keyboard,keyboard,cr,5812_cl_dnn_cr_keyboard_40_n04505470_4822.JPEG
vgg,5,693,NaN,keyboard,keyboard,cr,5813_cl_dnn_cr_keyboard_40_n03085013_3632.JPEG
vgg,5,694,NaN,keyboard,keyboard,cr,5814_cl_dnn_cr_keyboard_40_n03085013_22839.JPEG
vgg,5,695,NaN,keyboard,keyboard,cr,5815_cl_dnn_cr_keyboard_40_n03085013_4542.JPEG
vgg,5,696,NaN,keyboard,keyboard,cr,5816_cl_dnn_cr_keyboard_40_n03085013_21300.JPEG
vgg,5,697,NaN,keyboard,keyboard,cr,5817_cl_dnn_cr_keyboard_40_n04505470_3947.JPEG
vgg,5,698,NaN,keyboard,keyboard,cr,5818_cl_dnn_cr_keyboard_40_n03085013_14351.JPEG
vgg,5,699,NaN,keyboard,keyboard,cr,5819_cl_dnn_cr_keyboard_40_n04505470_3551.JPEG
vgg,5,700,NaN,keyboard,keyboard,cr,5820_cl_dnn_cr_keyboard_40_n03085013_22813.JPEG
vgg,5,701,NaN,keyboard,keyboard,cr,5821_cl_dnn_cr_keyboard_40_n03085013_18918.JPEG
vgg,5,702,NaN,keyboard,keyboard,cr,5822_cl_dnn_cr_keyboard_40_n04505470_2320.JPEG
vgg,5,703,NaN,keyboard,keyboard,cr,5823_cl_dnn_cr_keyboard_40_n04505470_207.JPEG
vgg,5,704,NaN,keyboard,keyboard,cr,5824_cl_dnn_cr_keyboard_40_n03085013_18623.JPEG
vgg,5,705,NaN,keyboard,keyboard,cr,5825_cl_dnn_cr_keyboard_40_n04505470_344.JPEG
vgg,5,706,NaN,keyboard,keyboard,cr,5826_cl_dnn_cr_keyboard_40_n04505470_4902.JPEG
vgg,5,707,NaN,keyboard,keyboard,cr,5827_cl_dnn_cr_keyboard_40_n03085013_18843.JPEG
vgg,5,708,NaN,keyboard,keyboard,cr,5828_cl_dnn_cr_keyboard_40_n03085013_3859.JPEG
vgg,5,709,NaN,keyboard,keyboard,cr,5829_cl_dnn_cr_keyboard_40_n04505470_3089.JPEG
vgg,5,710,NaN,keyboard,keyboard,cr,5830_cl_dnn_cr_keyboard_40_n03085013_20691.JPEG
vgg,5,711,NaN,keyboard,keyboard,cr,5831_cl_dnn_cr_keyboard_40_n03085013_22966.JPEG
vgg,5,712,NaN,keyboard,keyboard,cr,5832_cl_dnn_cr_keyboard_40_n03085013_18830.JPEG
vgg,5,713,NaN,keyboard,keyboard,cr,5833_cl_dnn_cr_keyboard_40_n04505470_10697.JPEG
vgg,5,714,NaN,keyboard,keyboard,cr,5834_cl_dnn_cr_keyboard_40_n03085013_17937.JPEG
vgg,5,715,NaN,keyboard,keyboard,cr,5835_cl_dnn_cr_keyboard_40_n04505470_4944.JPEG
vgg,5,716,NaN,keyboard,keyboard,cr,5836_cl_dnn_cr_keyboard_40_n04505470_4105.JPEG
vgg,5,717,NaN,keyboard,keyboard,cr,5837_cl_dnn_cr_keyboard_40_n03085013_23118.JPEG
vgg,5,718,NaN,keyboard,keyboard,cr,5838_cl_dnn_cr_keyboard_40_n03085013_16636.JPEG
vgg,5,719,NaN,keyboard,keyboard,cr,5839_cl_dnn_cr_keyboard_40_n03085013_7520.JPEG
vgg,5,720,NaN,keyboard,keyboard,cr,5840_cl_dnn_cr_keyboard_40_n04505470_8121.JPEG
vgg,5,721,NaN,elephant,elephant,cr,5841_cl_dnn_cr_elephant_40_n02504013_1830.JPEG
vgg,5,722,NaN,elephant,elephant,cr,5842_cl_dnn_cr_elephant_40_n02504458_4316.JPEG
vgg,5,723,NaN,elephant,elephant,cr,5843_cl_dnn_cr_elephant_40_n02504458_6805.JPEG
vgg,5,724,NaN,elephant,elephant,cr,5844_cl_dnn_cr_elephant_40_n02504458_3143.JPEG
vgg,5,725,NaN,elephant,elephant,cr,5845_cl_dnn_cr_elephant_40_n02504458_6120.JPEG
vgg,5,726,NaN,elephant,elephant,cr,5846_cl_dnn_cr_elephant_40_n02504458_817.JPEG
vgg,5,727,NaN,elephant,elephant,cr,5847_cl_dnn_cr_elephant_40_n02504013_2385.JPEG
vgg,5,728,NaN,elephant,elephant,cr,5848_cl_dnn_cr_elephant_40_n02504458_1563.JPEG
vgg,5,729,NaN,elephant,elephant,cr,5849_cl_dnn_cr_elephant_40_n02504013_3652.JPEG
vgg,5,730,NaN,elephant,elephant,cr,5850_cl_dnn_cr_elephant_40_n02504013_16126.JPEG
vgg,5,731,NaN,elephant,elephant,cr,5851_cl_dnn_cr_elephant_40_n02504013_5439.JPEG
vgg,5,732,NaN,elephant,elephant,cr,5852_cl_dnn_cr_elephant_40_n02504458_3628.JPEG
vgg,5,733,NaN,elephant,elephant,cr,5853_cl_dnn_cr_elephant_40_n02504013_3485.JPEG
vgg,5,734,NaN,elephant,elephant,cr,5854_cl_dnn_cr_elephant_40_n02504013_4686.JPEG
vgg,5,735,NaN,elephant,elephant,cr,5855_cl_dnn_cr_elephant_40_n02504013_1343.JPEG
vgg,5,736,NaN,elephant,elephant,cr,5856_cl_dnn_cr_elephant_40_n02504013_4485.JPEG
vgg,5,737,NaN,elephant,elephant,cr,5857_cl_dnn_cr_elephant_40_n02504013_9862.JPEG
vgg,5,738,NaN,elephant,elephant,cr,5858_cl_dnn_cr_elephant_40_n02504013_4846.JPEG
vgg,5,739,NaN,elephant,elephant,cr,5859_cl_dnn_cr_elephant_40_n02504013_11156.JPEG
vgg,5,740,NaN,elephant,elephant,cr,5860_cl_dnn_cr_elephant_40_n02504013_64.JPEG
vgg,5,741,NaN,elephant,elephant,cr,5861_cl_dnn_cr_elephant_40_n02504013_24621.JPEG
vgg,5,742,NaN,elephant,elephant,cr,5862_cl_dnn_cr_elephant_40_n02504013_2832.JPEG
vgg,5,743,NaN,dog,elephant,cr,5863_cl_dnn_cr_elephant_40_n02504013_6672.JPEG
vgg,5,744,NaN,elephant,elephant,cr,5864_cl_dnn_cr_elephant_40_n02504013_1908.JPEG
vgg,5,745,NaN,elephant,elephant,cr,5865_cl_dnn_cr_elephant_40_n02504458_1000.JPEG
vgg,5,746,NaN,elephant,elephant,cr,5866_cl_dnn_cr_elephant_40_n02504458_7564.JPEG
vgg,5,747,NaN,elephant,elephant,cr,5867_cl_dnn_cr_elephant_40_n02504013_13455.JPEG
vgg,5,748,NaN,elephant,elephant,cr,5868_cl_dnn_cr_elephant_40_n02504013_5217.JPEG
vgg,5,749,NaN,elephant,elephant,cr,5869_cl_dnn_cr_elephant_40_n02504458_3656.JPEG
vgg,5,750,NaN,elephant,elephant,cr,5870_cl_dnn_cr_elephant_40_n02504013_4044.JPEG
vgg,5,751,NaN,elephant,elephant,cr,5871_cl_dnn_cr_elephant_40_n02504458_10112.JPEG
vgg,5,752,NaN,elephant,elephant,cr,5872_cl_dnn_cr_elephant_40_n02504458_3208.JPEG
vgg,5,753,NaN,elephant,elephant,cr,5873_cl_dnn_cr_elephant_40_n02504458_7084.JPEG
vgg,5,754,NaN,elephant,elephant,cr,5874_cl_dnn_cr_elephant_40_n02504013_802.JPEG
vgg,5,755,NaN,elephant,elephant,cr,5875_cl_dnn_cr_elephant_40_n02504458_3287.JPEG
vgg,5,756,NaN,elephant,elephant,cr,5876_cl_dnn_cr_elephant_40_n02504013_13338.JPEG
vgg,5,757,NaN,elephant,elephant,cr,5877_cl_dnn_cr_elephant_40_n02504013_3511.JPEG
vgg,5,758,NaN,elephant,elephant,cr,5878_cl_dnn_cr_elephant_40_n02504013_10628.JPEG
vgg,5,759,NaN,elephant,elephant,cr,5879_cl_dnn_cr_elephant_40_n02504013_4892.JPEG
vgg,5,760,NaN,elephant,elephant,cr,5880_cl_dnn_cr_elephant_40_n02504013_1110.JPEG
vgg,5,761,NaN,bicycle,bicycle,cr,5881_cl_dnn_cr_bicycle_40_n02835271_3313.JPEG
vgg,5,762,NaN,bicycle,bicycle,cr,5882_cl_dnn_cr_bicycle_40_n03792782_7796.JPEG
vgg,5,763,NaN,bicycle,bicycle,cr,5883_cl_dnn_cr_bicycle_40_n02835271_22334.JPEG
vgg,5,764,NaN,bicycle,bicycle,cr,5884_cl_dnn_cr_bicycle_40_n02835271_6222.JPEG
vgg,5,765,NaN,bicycle,bicycle,cr,5885_cl_dnn_cr_bicycle_40_n02835271_8857.JPEG
vgg,5,766,NaN,bicycle,bicycle,cr,5886_cl_dnn_cr_bicycle_40_n02835271_5607.JPEG
vgg,5,767,NaN,bicycle,bicycle,cr,5887_cl_dnn_cr_bicycle_40_n02835271_1222.JPEG
vgg,5,768,NaN,bicycle,bicycle,cr,5888_cl_dnn_cr_bicycle_40_n02835271_12946.JPEG
vgg,5,769,NaN,bicycle,bicycle,cr,5889_cl_dnn_cr_bicycle_40_n03792782_5437.JPEG
vgg,5,770,NaN,bicycle,bicycle,cr,5890_cl_dnn_cr_bicycle_40_n02835271_6554.JPEG
vgg,5,771,NaN,bicycle,bicycle,cr,5891_cl_dnn_cr_bicycle_40_n02835271_12945.JPEG
vgg,5,772,NaN,bicycle,bicycle,cr,5892_cl_dnn_cr_bicycle_40_n03792782_11851.JPEG
vgg,5,773,NaN,bicycle,bicycle,cr,5893_cl_dnn_cr_bicycle_40_n03792782_32458.JPEG
vgg,5,774,NaN,bicycle,bicycle,cr,5894_cl_dnn_cr_bicycle_40_n03792782_3060.JPEG
vgg,5,775,NaN,bicycle,bicycle,cr,5895_cl_dnn_cr_bicycle_40_n03792782_1442.JPEG
vgg,5,776,NaN,bicycle,bicycle,cr,5896_cl_dnn_cr_bicycle_40_n02835271_6873.JPEG
vgg,5,777,NaN,bicycle,bicycle,cr,5897_cl_dnn_cr_bicycle_40_n02835271_1897.JPEG
vgg,5,778,NaN,bicycle,bicycle,cr,5898_cl_dnn_cr_bicycle_40_n02835271_27402.JPEG
vgg,5,779,NaN,bicycle,bicycle,cr,5899_cl_dnn_cr_bicycle_40_n02835271_23939.JPEG
vgg,5,780,NaN,bicycle,bicycle,cr,5900_cl_dnn_cr_bicycle_40_n02835271_15918.JPEG
vgg,5,781,NaN,bicycle,bicycle,cr,5901_cl_dnn_cr_bicycle_40_n03792782_870.JPEG
vgg,5,782,NaN,bicycle,bicycle,cr,5902_cl_dnn_cr_bicycle_40_n03792782_6616.JPEG
vgg,5,783,NaN,bicycle,bicycle,cr,5903_cl_dnn_cr_bicycle_40_n02835271_2570.JPEG
vgg,5,784,NaN,bicycle,bicycle,cr,5904_cl_dnn_cr_bicycle_40_n02835271_12597.JPEG
vgg,5,785,NaN,bicycle,bicycle,cr,5905_cl_dnn_cr_bicycle_40_n02835271_8902.JPEG
vgg,5,786,NaN,bicycle,bicycle,cr,5906_cl_dnn_cr_bicycle_40_n03792782_95.JPEG
vgg,5,787,NaN,bicycle,bicycle,cr,5907_cl_dnn_cr_bicycle_40_n03792782_7008.JPEG
vgg,5,788,NaN,bicycle,bicycle,cr,5908_cl_dnn_cr_bicycle_40_n03792782_7331.JPEG
vgg,5,789,NaN,bicycle,bicycle,cr,5909_cl_dnn_cr_bicycle_40_n02835271_6826.JPEG
vgg,5,790,NaN,bicycle,bicycle,cr,5910_cl_dnn_cr_bicycle_40_n02835271_4828.JPEG
vgg,5,791,NaN,bicycle,bicycle,cr,5911_cl_dnn_cr_bicycle_40_n03792782_22620.JPEG
vgg,5,792,NaN,bicycle,bicycle,cr,5912_cl_dnn_cr_bicycle_40_n03792782_19532.JPEG
vgg,5,793,NaN,bicycle,bicycle,cr,5913_cl_dnn_cr_bicycle_40_n03792782_20071.JPEG
vgg,5,794,NaN,bicycle,bicycle,cr,5914_cl_dnn_cr_bicycle_40_n03792782_6857.JPEG
vgg,5,795,NaN,bicycle,bicycle,cr,5915_cl_dnn_cr_bicycle_40_n03792782_5639.JPEG
vgg,5,796,NaN,bicycle,bicycle,cr,5916_cl_dnn_cr_bicycle_40_n03792782_44779.JPEG
vgg,5,797,NaN,bicycle,bicycle,cr,5917_cl_dnn_cr_bicycle_40_n02835271_13505.JPEG
vgg,5,798,NaN,bicycle,bicycle,cr,5918_cl_dnn_cr_bicycle_40_n03792782_55532.JPEG
vgg,5,799,NaN,bicycle,bicycle,cr,5919_cl_dnn_cr_bicycle_40_n02835271_12360.JPEG
vgg,5,800,NaN,bicycle,bicycle,cr,5920_cl_dnn_cr_bicycle_40_n03792782_7180.JPEG
vgg,5,801,NaN,airplane,airplane,cr,5921_cl_dnn_cr_airplane_40_n02690373_10729.JPEG
vgg,5,802,NaN,airplane,airplane,cr,5922_cl_dnn_cr_airplane_40_n02690373_7489.JPEG
vgg,5,803,NaN,airplane,airplane,cr,5923_cl_dnn_cr_airplane_40_n02690373_3984.JPEG
vgg,5,804,NaN,airplane,airplane,cr,5924_cl_dnn_cr_airplane_40_n02690373_9376.JPEG
vgg,5,805,NaN,airplane,airplane,cr,5925_cl_dnn_cr_airplane_40_n02690373_6114.JPEG
vgg,5,806,NaN,airplane,airplane,cr,5926_cl_dnn_cr_airplane_40_n02690373_10938.JPEG
vgg,5,807,NaN,airplane,airplane,cr,5927_cl_dnn_cr_airplane_40_n02690373_1074.JPEG
vgg,5,808,NaN,car,airplane,cr,5928_cl_dnn_cr_airplane_40_n02690373_7698.JPEG
vgg,5,809,NaN,airplane,airplane,cr,5929_cl_dnn_cr_airplane_40_n02690373_9531.JPEG
vgg,5,810,NaN,airplane,airplane,cr,5930_cl_dnn_cr_airplane_40_n02690373_7615.JPEG
vgg,5,811,NaN,airplane,airplane,cr,5931_cl_dnn_cr_airplane_40_n02690373_6285.JPEG
vgg,5,812,NaN,airplane,airplane,cr,5932_cl_dnn_cr_airplane_40_n02690373_1233.JPEG
vgg,5,813,NaN,airplane,airplane,cr,5933_cl_dnn_cr_airplane_40_n02690373_8876.JPEG
vgg,5,814,NaN,airplane,airplane,cr,5934_cl_dnn_cr_airplane_40_n02690373_4233.JPEG
vgg,5,815,NaN,airplane,airplane,cr,5935_cl_dnn_cr_airplane_40_n02690373_3696.JPEG
vgg,5,816,NaN,airplane,airplane,cr,5936_cl_dnn_cr_airplane_40_n02690373_1350.JPEG
vgg,5,817,NaN,airplane,airplane,cr,5937_cl_dnn_cr_airplane_40_n02690373_6676.JPEG
vgg,5,818,NaN,airplane,airplane,cr,5938_cl_dnn_cr_airplane_40_n02690373_1351.JPEG
vgg,5,819,NaN,airplane,airplane,cr,5939_cl_dnn_cr_airplane_40_n02690373_13591.JPEG
vgg,5,820,NaN,airplane,airplane,cr,5940_cl_dnn_cr_airplane_40_n02690373_4358.JPEG
vgg,5,821,NaN,airplane,airplane,cr,5941_cl_dnn_cr_airplane_40_n02690373_3775.JPEG
vgg,5,822,NaN,airplane,airplane,cr,5942_cl_dnn_cr_airplane_40_n02690373_5714.JPEG
vgg,5,823,NaN,airplane,airplane,cr,5943_cl_dnn_cr_airplane_40_n02690373_4148.JPEG
vgg,5,824,NaN,airplane,airplane,cr,5944_cl_dnn_cr_airplane_40_n02690373_9312.JPEG
vgg,5,825,NaN,airplane,airplane,cr,5945_cl_dnn_cr_airplane_40_n02690373_1450.JPEG
vgg,5,826,NaN,airplane,airplane,cr,5946_cl_dnn_cr_airplane_40_n02690373_19407.JPEG
vgg,5,827,NaN,airplane,airplane,cr,5947_cl_dnn_cr_airplane_40_n02690373_3553.JPEG
vgg,5,828,NaN,airplane,airplane,cr,5948_cl_dnn_cr_airplane_40_n02690373_1044.JPEG
vgg,5,829,NaN,airplane,airplane,cr,5949_cl_dnn_cr_airplane_40_n02690373_4429.JPEG
vgg,5,830,NaN,airplane,airplane,cr,5950_cl_dnn_cr_airplane_40_n02690373_3669.JPEG
vgg,5,831,NaN,airplane,airplane,cr,5951_cl_dnn_cr_airplane_40_n02690373_17764.JPEG
vgg,5,832,NaN,airplane,airplane,cr,5952_cl_dnn_cr_airplane_40_n02690373_1733.JPEG
vgg,5,833,NaN,airplane,airplane,cr,5953_cl_dnn_cr_airplane_40_n02690373_4183.JPEG
vgg,5,834,NaN,airplane,airplane,cr,5954_cl_dnn_cr_airplane_40_n02690373_777.JPEG
vgg,5,835,NaN,airplane,airplane,cr,5955_cl_dnn_cr_airplane_40_n02690373_5885.JPEG
vgg,5,836,NaN,airplane,airplane,cr,5956_cl_dnn_cr_airplane_40_n02690373_6313.JPEG
vgg,5,837,NaN,airplane,airplane,cr,5957_cl_dnn_cr_airplane_40_n02690373_6739.JPEG
vgg,5,838,NaN,airplane,airplane,cr,5958_cl_dnn_cr_airplane_40_n02690373_744.JPEG
vgg,5,839,NaN,airplane,airplane,cr,5959_cl_dnn_cr_airplane_40_n02690373_2095.JPEG
vgg,5,840,NaN,airplane,airplane,cr,5960_cl_dnn_cr_airplane_40_n02690373_8350.JPEG
vgg,5,841,NaN,clock,clock,cr,5961_cl_dnn_cr_clock_40_n04548280_3503.JPEG
vgg,5,842,NaN,clock,clock,cr,5962_cl_dnn_cr_clock_40_n04548280_4327.JPEG
vgg,5,843,NaN,clock,clock,cr,5963_cl_dnn_cr_clock_40_n04548280_3103.JPEG
vgg,5,844,NaN,clock,clock,cr,5964_cl_dnn_cr_clock_40_n03196217_2447.JPEG
vgg,5,845,NaN,clock,clock,cr,5965_cl_dnn_cr_clock_40_n04548280_6221.JPEG
vgg,5,846,NaN,clock,clock,cr,5966_cl_dnn_cr_clock_40_n02708093_1023.JPEG
vgg,5,847,NaN,clock,clock,cr,5967_cl_dnn_cr_clock_40_n02708093_7885.JPEG
vgg,5,848,NaN,clock,clock,cr,5968_cl_dnn_cr_clock_40_n02708093_2622.JPEG
vgg,5,849,NaN,clock,clock,cr,5969_cl_dnn_cr_clock_40_n04548280_18914.JPEG
vgg,5,850,NaN,clock,clock,cr,5970_cl_dnn_cr_clock_40_n04548280_6814.JPEG
vgg,5,851,NaN,clock,clock,cr,5971_cl_dnn_cr_clock_40_n02708093_3453.JPEG
vgg,5,852,NaN,clock,clock,cr,5972_cl_dnn_cr_clock_40_n04548280_9743.JPEG
vgg,5,853,NaN,clock,clock,cr,5973_cl_dnn_cr_clock_40_n03196217_4019.JPEG
vgg,5,854,NaN,clock,clock,cr,5974_cl_dnn_cr_clock_40_n03196217_8614.JPEG
vgg,5,855,NaN,bottle,clock,cr,5975_cl_dnn_cr_clock_40_n03196217_9343.JPEG
vgg,5,856,NaN,clock,clock,cr,5976_cl_dnn_cr_clock_40_n03196217_343.JPEG
vgg,5,857,NaN,clock,clock,cr,5977_cl_dnn_cr_clock_40_n04548280_8480.JPEG
vgg,5,858,NaN,clock,clock,cr,5978_cl_dnn_cr_clock_40_n04548280_5701.JPEG
vgg,5,859,NaN,clock,clock,cr,5979_cl_dnn_cr_clock_40_n04548280_5889.JPEG
vgg,5,860,NaN,clock,clock,cr,5980_cl_dnn_cr_clock_40_n04548280_9426.JPEG
vgg,5,861,NaN,clock,clock,cr,5981_cl_dnn_cr_clock_40_n03196217_8139.JPEG
vgg,5,862,NaN,clock,clock,cr,5982_cl_dnn_cr_clock_40_n02708093_8223.JPEG
vgg,5,863,NaN,clock,clock,cr,5983_cl_dnn_cr_clock_40_n02708093_8267.JPEG
vgg,5,864,NaN,clock,clock,cr,5984_cl_dnn_cr_clock_40_n04548280_397.JPEG
vgg,5,865,NaN,clock,clock,cr,5985_cl_dnn_cr_clock_40_n02708093_3308.JPEG
vgg,5,866,NaN,clock,clock,cr,5986_cl_dnn_cr_clock_40_n02708093_3079.JPEG
vgg,5,867,NaN,chair,clock,cr,5987_cl_dnn_cr_clock_40_n04548280_5201.JPEG
vgg,5,868,NaN,clock,clock,cr,5988_cl_dnn_cr_clock_40_n04548280_3022.JPEG
vgg,5,869,NaN,clock,clock,cr,5989_cl_dnn_cr_clock_40_n02708093_4255.JPEG
vgg,5,870,NaN,clock,clock,cr,5990_cl_dnn_cr_clock_40_n02708093_175.JPEG
vgg,5,871,NaN,clock,clock,cr,5991_cl_dnn_cr_clock_40_n04548280_57.JPEG
vgg,5,872,NaN,clock,clock,cr,5992_cl_dnn_cr_clock_40_n02708093_8229.JPEG
vgg,5,873,NaN,clock,clock,cr,5993_cl_dnn_cr_clock_40_n03196217_5772.JPEG
vgg,5,874,NaN,clock,clock,cr,5994_cl_dnn_cr_clock_40_n04548280_8210.JPEG
vgg,5,875,NaN,clock,clock,cr,5995_cl_dnn_cr_clock_40_n03196217_7759.JPEG
vgg,5,876,NaN,clock,clock,cr,5996_cl_dnn_cr_clock_40_n03196217_11913.JPEG
vgg,5,877,NaN,clock,clock,cr,5997_cl_dnn_cr_clock_40_n03196217_3601.JPEG
vgg,5,878,NaN,clock,clock,cr,5998_cl_dnn_cr_clock_40_n04548280_3047.JPEG
vgg,5,879,NaN,clock,clock,cr,5999_cl_dnn_cr_clock_40_n04548280_670.JPEG
vgg,5,880,NaN,clock,clock,cr,6000_cl_dnn_cr_clock_40_n02708093_8026.JPEG
vgg,5,881,NaN,oven,oven,cr,6001_cl_dnn_cr_oven_40_n04111531_7340.JPEG
vgg,5,882,NaN,oven,oven,cr,6002_cl_dnn_cr_oven_40_n04111531_10306.JPEG
vgg,5,883,NaN,oven,oven,cr,6003_cl_dnn_cr_oven_40_n04111531_550.JPEG
vgg,5,884,NaN,oven,oven,cr,6004_cl_dnn_cr_oven_40_n04111531_585.JPEG
vgg,5,885,NaN,oven,oven,cr,6005_cl_dnn_cr_oven_40_n04111531_21011.JPEG
vgg,5,886,NaN,oven,oven,cr,6006_cl_dnn_cr_oven_40_n04111531_2923.JPEG
vgg,5,887,NaN,oven,oven,cr,6007_cl_dnn_cr_oven_40_n04111531_857.JPEG
vgg,5,888,NaN,oven,oven,cr,6008_cl_dnn_cr_oven_40_n04111531_18979.JPEG
vgg,5,889,NaN,oven,oven,cr,6009_cl_dnn_cr_oven_40_n04111531_5694.JPEG
vgg,5,890,NaN,oven,oven,cr,6010_cl_dnn_cr_oven_40_n04111531_14934.JPEG
vgg,5,891,NaN,oven,oven,cr,6011_cl_dnn_cr_oven_40_n04111531_3702.JPEG
vgg,5,892,NaN,oven,oven,cr,6012_cl_dnn_cr_oven_40_n04111531_6629.JPEG
vgg,5,893,NaN,oven,oven,cr,6013_cl_dnn_cr_oven_40_n04111531_21248.JPEG
vgg,5,894,NaN,oven,oven,cr,6014_cl_dnn_cr_oven_40_n04111531_12830.JPEG
vgg,5,895,NaN,oven,oven,cr,6015_cl_dnn_cr_oven_40_n04111531_10220.JPEG
vgg,5,896,NaN,oven,oven,cr,6016_cl_dnn_cr_oven_40_n04111531_3955.JPEG
vgg,5,897,NaN,oven,oven,cr,6017_cl_dnn_cr_oven_40_n04111531_13906.JPEG
vgg,5,898,NaN,oven,oven,cr,6018_cl_dnn_cr_oven_40_n04111531_1482.JPEG
vgg,5,899,NaN,oven,oven,cr,6019_cl_dnn_cr_oven_40_n04111531_9915.JPEG
vgg,5,900,NaN,oven,oven,cr,6020_cl_dnn_cr_oven_40_n04111531_9844.JPEG
vgg,5,901,NaN,oven,oven,cr,6021_cl_dnn_cr_oven_40_n04111531_21173.JPEG
vgg,5,902,NaN,oven,oven,cr,6022_cl_dnn_cr_oven_40_n04111531_13625.JPEG
vgg,5,903,NaN,oven,oven,cr,6023_cl_dnn_cr_oven_40_n04111531_6428.JPEG
vgg,5,904,NaN,oven,oven,cr,6024_cl_dnn_cr_oven_40_n04111531_5906.JPEG
vgg,5,905,NaN,oven,oven,cr,6025_cl_dnn_cr_oven_40_n04111531_681.JPEG
vgg,5,906,NaN,oven,oven,cr,6026_cl_dnn_cr_oven_40_n04111531_8462.JPEG
vgg,5,907,NaN,oven,oven,cr,6027_cl_dnn_cr_oven_40_n04111531_1898.JPEG
vgg,5,908,NaN,oven,oven,cr,6028_cl_dnn_cr_oven_40_n04111531_1989.JPEG
vgg,5,909,NaN,oven,oven,cr,6029_cl_dnn_cr_oven_40_n04111531_523.JPEG
vgg,5,910,NaN,oven,oven,cr,6030_cl_dnn_cr_oven_40_n04111531_14325.JPEG
vgg,5,911,NaN,oven,oven,cr,6031_cl_dnn_cr_oven_40_n04111531_1229.JPEG
vgg,5,912,NaN,oven,oven,cr,6032_cl_dnn_cr_oven_40_n04111531_9342.JPEG
vgg,5,913,NaN,oven,oven,cr,6033_cl_dnn_cr_oven_40_n04111531_7097.JPEG
vgg,5,914,NaN,clock,oven,cr,6034_cl_dnn_cr_oven_40_n04111531_27.JPEG
vgg,5,915,NaN,oven,oven,cr,6035_cl_dnn_cr_oven_40_n04111531_8398.JPEG
vgg,5,916,NaN,oven,oven,cr,6036_cl_dnn_cr_oven_40_n04111531_978.JPEG
vgg,5,917,NaN,oven,oven,cr,6037_cl_dnn_cr_oven_40_n04111531_1442.JPEG
vgg,5,918,NaN,oven,oven,cr,6038_cl_dnn_cr_oven_40_n04111531_7821.JPEG
vgg,5,919,NaN,oven,oven,cr,6039_cl_dnn_cr_oven_40_n04111531_13822.JPEG
vgg,5,920,NaN,oven,oven,cr,6040_cl_dnn_cr_oven_40_n04111531_766.JPEG
vgg,5,921,NaN,chair,chair,cr,6041_cl_dnn_cr_chair_40_n03376595_6333.JPEG
vgg,5,922,NaN,chair,chair,cr,6042_cl_dnn_cr_chair_40_n02791124_8321.JPEG
vgg,5,923,NaN,chair,chair,cr,6043_cl_dnn_cr_chair_40_n03376595_9099.JPEG
vgg,5,924,NaN,chair,chair,cr,6044_cl_dnn_cr_chair_40_n02791124_446.JPEG
vgg,5,925,NaN,chair,chair,cr,6045_cl_dnn_cr_chair_40_n04429376_14855.JPEG
vgg,5,926,NaN,chair,chair,cr,6046_cl_dnn_cr_chair_40_n02791124_3160.JPEG
vgg,5,927,NaN,chair,chair,cr,6047_cl_dnn_cr_chair_40_n02791124_957.JPEG
vgg,5,928,NaN,chair,chair,cr,6048_cl_dnn_cr_chair_40_n04429376_24615.JPEG
vgg,5,929,NaN,chair,chair,cr,6049_cl_dnn_cr_chair_40_n04429376_49351.JPEG
vgg,5,930,NaN,chair,chair,cr,6050_cl_dnn_cr_chair_40_n02791124_11404.JPEG
vgg,5,931,NaN,chair,chair,cr,6051_cl_dnn_cr_chair_40_n03376595_7709.JPEG
vgg,5,932,NaN,chair,chair,cr,6052_cl_dnn_cr_chair_40_n04099969_3436.JPEG
vgg,5,933,NaN,chair,chair,cr,6053_cl_dnn_cr_chair_40_n02791124_5628.JPEG
vgg,5,934,NaN,chair,chair,cr,6054_cl_dnn_cr_chair_40_n03376595_8252.JPEG
vgg,5,935,NaN,chair,chair,cr,6055_cl_dnn_cr_chair_40_n02791124_807.JPEG
vgg,5,936,NaN,chair,chair,cr,6056_cl_dnn_cr_chair_40_n04429376_8395.JPEG
vgg,5,937,NaN,chair,chair,cr,6057_cl_dnn_cr_chair_40_n04099969_72.JPEG
vgg,5,938,NaN,chair,chair,cr,6058_cl_dnn_cr_chair_40_n02791124_5599.JPEG
vgg,5,939,NaN,chair,chair,cr,6059_cl_dnn_cr_chair_40_n02791124_3898.JPEG
vgg,5,940,NaN,chair,chair,cr,6060_cl_dnn_cr_chair_40_n04099969_23718.JPEG
vgg,5,941,NaN,chair,chair,cr,6061_cl_dnn_cr_chair_40_n03376595_14756.JPEG
vgg,5,942,NaN,clock,chair,cr,6062_cl_dnn_cr_chair_40_n04099969_3119.JPEG
vgg,5,943,NaN,chair,chair,cr,6063_cl_dnn_cr_chair_40_n03376595_10396.JPEG
vgg,5,944,NaN,chair,chair,cr,6064_cl_dnn_cr_chair_40_n04429376_11642.JPEG
vgg,5,945,NaN,chair,chair,cr,6065_cl_dnn_cr_chair_40_n04429376_18627.JPEG
vgg,5,946,NaN,chair,chair,cr,6066_cl_dnn_cr_chair_40_n02791124_1260.JPEG
vgg,5,947,NaN,chair,chair,cr,6067_cl_dnn_cr_chair_40_n04429376_2304.JPEG
vgg,5,948,NaN,chair,chair,cr,6068_cl_dnn_cr_chair_40_n04429376_6242.JPEG
vgg,5,949,NaN,chair,chair,cr,6069_cl_dnn_cr_chair_40_n04429376_29357.JPEG
vgg,5,950,NaN,chair,chair,cr,6070_cl_dnn_cr_chair_40_n03376595_7041.JPEG
vgg,5,951,NaN,chair,chair,cr,6071_cl_dnn_cr_chair_40_n04099969_2235.JPEG
vgg,5,952,NaN,chair,chair,cr,6072_cl_dnn_cr_chair_40_n03376595_9603.JPEG
vgg,5,953,NaN,chair,chair,cr,6073_cl_dnn_cr_chair_40_n04099969_13458.JPEG
vgg,5,954,NaN,chair,chair,cr,6074_cl_dnn_cr_chair_40_n04429376_10544.JPEG
vgg,5,955,NaN,chair,chair,cr,6075_cl_dnn_cr_chair_40_n03376595_6524.JPEG
vgg,5,956,NaN,chair,chair,cr,6076_cl_dnn_cr_chair_40_n04099969_10569.JPEG
vgg,5,957,NaN,chair,chair,cr,6077_cl_dnn_cr_chair_40_n04099969_3393.JPEG
vgg,5,958,NaN,chair,chair,cr,6078_cl_dnn_cr_chair_40_n02791124_1059.JPEG
vgg,5,959,NaN,chair,chair,cr,6079_cl_dnn_cr_chair_40_n04099969_38787.JPEG
vgg,5,960,NaN,chair,chair,cr,6080_cl_dnn_cr_chair_40_n04099969_9571.JPEG
vgg,5,961,NaN,bear,bear,cr,6081_cl_dnn_cr_bear_40_n02134084_34722.JPEG
vgg,5,962,NaN,bear,bear,cr,6082_cl_dnn_cr_bear_40_n02133161_13426.JPEG
vgg,5,963,NaN,bear,bear,cr,6083_cl_dnn_cr_bear_40_n02132136_396.JPEG
vgg,5,964,NaN,bear,bear,cr,6084_cl_dnn_cr_bear_40_n02134418_510.JPEG
vgg,5,965,NaN,bear,bear,cr,6085_cl_dnn_cr_bear_40_n02132136_369.JPEG
vgg,5,966,NaN,bear,bear,cr,6086_cl_dnn_cr_bear_40_n02134418_5526.JPEG
vgg,5,967,NaN,bear,bear,cr,6087_cl_dnn_cr_bear_40_n02133161_298.JPEG
vgg,5,968,NaN,bear,bear,cr,6088_cl_dnn_cr_bear_40_n02134418_5692.JPEG
vgg,5,969,NaN,bear,bear,cr,6089_cl_dnn_cr_bear_40_n02134418_2278.JPEG
vgg,5,970,NaN,bear,bear,cr,6090_cl_dnn_cr_bear_40_n02133161_195.JPEG
vgg,5,971,NaN,bear,bear,cr,6091_cl_dnn_cr_bear_40_n02132136_705.JPEG
vgg,5,972,NaN,bear,bear,cr,6092_cl_dnn_cr_bear_40_n02133161_4331.JPEG
vgg,5,973,NaN,bear,bear,cr,6093_cl_dnn_cr_bear_40_n02133161_4753.JPEG
vgg,5,974,NaN,bear,bear,cr,6094_cl_dnn_cr_bear_40_n02132136_1694.JPEG
vgg,5,975,NaN,bear,bear,cr,6095_cl_dnn_cr_bear_40_n02134418_24559.JPEG
vgg,5,976,NaN,bear,bear,cr,6096_cl_dnn_cr_bear_40_n02132136_10461.JPEG
vgg,5,977,NaN,bear,bear,cr,6097_cl_dnn_cr_bear_40_n02132136_3361.JPEG
vgg,5,978,NaN,bear,bear,cr,6098_cl_dnn_cr_bear_40_n02134418_228.JPEG
vgg,5,979,NaN,bear,bear,cr,6099_cl_dnn_cr_bear_40_n02134084_15016.JPEG
vgg,5,980,NaN,bear,bear,cr,6100_cl_dnn_cr_bear_40_n02133161_1959.JPEG
vgg,5,981,NaN,bear,bear,cr,6101_cl_dnn_cr_bear_40_n02134418_4041.JPEG
vgg,5,982,NaN,bear,bear,cr,6102_cl_dnn_cr_bear_40_n02132136_12191.JPEG
vgg,5,983,NaN,bear,bear,cr,6103_cl_dnn_cr_bear_40_n02134084_791.JPEG
vgg,5,984,NaN,bear,bear,cr,6104_cl_dnn_cr_bear_40_n02134084_5274.JPEG
vgg,5,985,NaN,bear,bear,cr,6105_cl_dnn_cr_bear_40_n02133161_9786.JPEG
vgg,5,986,NaN,bear,bear,cr,6106_cl_dnn_cr_bear_40_n02132136_4111.JPEG
vgg,5,987,NaN,bear,bear,cr,6107_cl_dnn_cr_bear_40_n02133161_14729.JPEG
vgg,5,988,NaN,bear,bear,cr,6108_cl_dnn_cr_bear_40_n02133161_4429.JPEG
vgg,5,989,NaN,bear,bear,cr,6109_cl_dnn_cr_bear_40_n02133161_2040.JPEG
vgg,5,990,NaN,bear,bear,cr,6110_cl_dnn_cr_bear_40_n02134418_6123.JPEG
vgg,5,991,NaN,bear,bear,cr,6111_cl_dnn_cr_bear_40_n02134084_7599.JPEG
vgg,5,992,NaN,bear,bear,cr,6112_cl_dnn_cr_bear_40_n02133161_9449.JPEG
vgg,5,993,NaN,bear,bear,cr,6113_cl_dnn_cr_bear_40_n02132136_489.JPEG
vgg,5,994,NaN,bear,bear,cr,6114_cl_dnn_cr_bear_40_n02132136_5052.JPEG
vgg,5,995,NaN,bear,bear,cr,6115_cl_dnn_cr_bear_40_n02132136_22545.JPEG
vgg,5,996,NaN,bear,bear,cr,6116_cl_dnn_cr_bear_40_n02133161_6959.JPEG
vgg,5,997,NaN,bear,bear,cr,6117_cl_dnn_cr_bear_40_n02133161_8463.JPEG
vgg,5,998,NaN,bear,bear,cr,6118_cl_dnn_cr_bear_40_n02133161_14361.JPEG
vgg,5,999,NaN,bear,bear,cr,6119_cl_dnn_cr_bear_40_n02134084_16455.JPEG
vgg,5,1000,NaN,bear,bear,cr,6120_cl_dnn_cr_bear_40_n02134418_3794.JPEG
vgg,5,1001,NaN,boat,boat,cr,6121_cl_dnn_cr_boat_40_n03344393_2891.JPEG
vgg,5,1002,NaN,boat,boat,cr,6122_cl_dnn_cr_boat_40_n04612504_626.JPEG
vgg,5,1003,NaN,boat,boat,cr,6123_cl_dnn_cr_boat_40_n04612504_35920.JPEG
vgg,5,1004,NaN,boat,boat,cr,6124_cl_dnn_cr_boat_40_n03344393_4339.JPEG
vgg,5,1005,NaN,boat,boat,cr,6125_cl_dnn_cr_boat_40_n03344393_9732.JPEG
vgg,5,1006,NaN,boat,boat,cr,6126_cl_dnn_cr_boat_40_n03662601_9906.JPEG
vgg,5,1007,NaN,boat,boat,cr,6127_cl_dnn_cr_boat_40_n04273569_17073.JPEG
vgg,5,1008,NaN,boat,boat,cr,6128_cl_dnn_cr_boat_40_n02951358_3132.JPEG
vgg,5,1009,NaN,boat,boat,cr,6129_cl_dnn_cr_boat_40_n03344393_6456.JPEG
vgg,5,1010,NaN,boat,boat,cr,6130_cl_dnn_cr_boat_40_n04273569_16329.JPEG
vgg,5,1011,NaN,boat,boat,cr,6131_cl_dnn_cr_boat_40_n04612504_11387.JPEG
vgg,5,1012,NaN,boat,boat,cr,6132_cl_dnn_cr_boat_40_n03662601_7270.JPEG
vgg,5,1013,NaN,boat,boat,cr,6133_cl_dnn_cr_boat_40_n04273569_4948.JPEG
vgg,5,1014,NaN,boat,boat,cr,6134_cl_dnn_cr_boat_40_n04273569_10500.JPEG
vgg,5,1015,NaN,boat,boat,cr,6135_cl_dnn_cr_boat_40_n04612504_15732.JPEG
vgg,5,1016,NaN,boat,boat,cr,6136_cl_dnn_cr_boat_40_n03662601_5939.JPEG
vgg,5,1017,NaN,boat,boat,cr,6137_cl_dnn_cr_boat_40_n03662601_28723.JPEG
vgg,5,1018,NaN,boat,boat,cr,6138_cl_dnn_cr_boat_40_n02951358_31133.JPEG
vgg,5,1019,NaN,boat,boat,cr,6139_cl_dnn_cr_boat_40_n02951358_33722.JPEG
vgg,5,1020,NaN,boat,boat,cr,6140_cl_dnn_cr_boat_40_n03662601_26231.JPEG
vgg,5,1021,NaN,boat,boat,cr,6141_cl_dnn_cr_boat_40_n04612504_11653.JPEG
vgg,5,1022,NaN,car,boat,cr,6142_cl_dnn_cr_boat_40_n04273569_21583.JPEG
vgg,5,1023,NaN,bicycle,boat,cr,6143_cl_dnn_cr_boat_40_n02951358_14346.JPEG
vgg,5,1024,NaN,boat,boat,cr,6144_cl_dnn_cr_boat_40_n04612504_8942.JPEG
vgg,5,1025,NaN,boat,boat,cr,6145_cl_dnn_cr_boat_40_n03662601_34152.JPEG
vgg,5,1026,NaN,boat,boat,cr,6146_cl_dnn_cr_boat_40_n04273569_6888.JPEG
vgg,5,1027,NaN,boat,boat,cr,6147_cl_dnn_cr_boat_40_n03662601_8406.JPEG
vgg,5,1028,NaN,boat,boat,cr,6148_cl_dnn_cr_boat_40_n02951358_26579.JPEG
vgg,5,1029,NaN,boat,boat,cr,6149_cl_dnn_cr_boat_40_n02951358_2530.JPEG
vgg,5,1030,NaN,boat,boat,cr,6150_cl_dnn_cr_boat_40_n03344393_6324.JPEG
vgg,5,1031,NaN,boat,boat,cr,6151_cl_dnn_cr_boat_40_n02951358_7315.JPEG
vgg,5,1032,NaN,boat,boat,cr,6152_cl_dnn_cr_boat_40_n02951358_14097.JPEG
vgg,5,1033,NaN,boat,boat,cr,6153_cl_dnn_cr_boat_40_n04273569_1229.JPEG
vgg,5,1034,NaN,boat,boat,cr,6154_cl_dnn_cr_boat_40_n03662601_2820.JPEG
vgg,5,1035,NaN,boat,boat,cr,6155_cl_dnn_cr_boat_40_n03344393_4143.JPEG
vgg,5,1036,NaN,boat,boat,cr,6156_cl_dnn_cr_boat_40_n03662601_2103.JPEG
vgg,5,1037,NaN,boat,boat,cr,6157_cl_dnn_cr_boat_40_n04612504_17581.JPEG
vgg,5,1038,NaN,boat,boat,cr,6158_cl_dnn_cr_boat_40_n02951358_32408.JPEG
vgg,5,1039,NaN,boat,boat,cr,6159_cl_dnn_cr_boat_40_n03662601_31055.JPEG
vgg,5,1040,NaN,boat,boat,cr,6160_cl_dnn_cr_boat_40_n03344393_9455.JPEG
vgg,5,1041,NaN,cat,cat,cr,6161_cl_dnn_cr_cat_40_n02123394_3429.JPEG
vgg,5,1042,NaN,cat,cat,cr,6162_cl_dnn_cr_cat_40_n02123159_14972.JPEG
vgg,5,1043,NaN,cat,cat,cr,6163_cl_dnn_cr_cat_40_n02123159_3539.JPEG
vgg,5,1044,NaN,cat,cat,cr,6164_cl_dnn_cr_cat_40_n02123394_659.JPEG
vgg,5,1045,NaN,cat,cat,cr,6165_cl_dnn_cr_cat_40_n02123045_10887.JPEG
vgg,5,1046,NaN,cat,cat,cr,6166_cl_dnn_cr_cat_40_n02123159_1859.JPEG
vgg,5,1047,NaN,cat,cat,cr,6167_cl_dnn_cr_cat_40_n02123597_9652.JPEG
vgg,5,1048,NaN,cat,cat,cr,6168_cl_dnn_cr_cat_40_n02124075_15096.JPEG
vgg,5,1049,NaN,cat,cat,cr,6169_cl_dnn_cr_cat_40_n02123394_8639.JPEG
vgg,5,1050,NaN,cat,cat,cr,6170_cl_dnn_cr_cat_40_n02125311_27369.JPEG
vgg,5,1051,NaN,dog,cat,cr,6171_cl_dnn_cr_cat_40_n02123597_5224.JPEG
vgg,5,1052,NaN,cat,cat,cr,6172_cl_dnn_cr_cat_40_n02123045_11787.JPEG
vgg,5,1053,NaN,cat,cat,cr,6173_cl_dnn_cr_cat_40_n02123394_8236.JPEG
vgg,5,1054,NaN,cat,cat,cr,6174_cl_dnn_cr_cat_40_n02123394_7812.JPEG
vgg,5,1055,NaN,cat,cat,cr,6175_cl_dnn_cr_cat_40_n02123045_1572.JPEG
vgg,5,1056,NaN,cat,cat,cr,6176_cl_dnn_cr_cat_40_n02123394_2787.JPEG
vgg,5,1057,NaN,cat,cat,cr,6177_cl_dnn_cr_cat_40_n02124075_2402.JPEG
vgg,5,1058,NaN,cat,cat,cr,6178_cl_dnn_cr_cat_40_n02125311_20427.JPEG
vgg,5,1059,NaN,cat,cat,cr,6179_cl_dnn_cr_cat_40_n02125311_17037.JPEG
vgg,5,1060,NaN,cat,cat,cr,6180_cl_dnn_cr_cat_40_n02123159_1501.JPEG
vgg,5,1061,NaN,cat,cat,cr,6181_cl_dnn_cr_cat_40_n02125311_3777.JPEG
vgg,5,1062,NaN,cat,cat,cr,6182_cl_dnn_cr_cat_40_n02123159_820.JPEG
vgg,5,1063,NaN,cat,cat,cr,6183_cl_dnn_cr_cat_40_n02123394_571.JPEG
vgg,5,1064,NaN,cat,cat,cr,6184_cl_dnn_cr_cat_40_n02123597_40.JPEG
vgg,5,1065,NaN,cat,cat,cr,6185_cl_dnn_cr_cat_40_n02123394_6531.JPEG
vgg,5,1066,NaN,cat,cat,cr,6186_cl_dnn_cr_cat_40_n02123597_1367.JPEG
vgg,5,1067,NaN,cat,cat,cr,6187_cl_dnn_cr_cat_40_n02125311_17933.JPEG
vgg,5,1068,NaN,cat,cat,cr,6188_cl_dnn_cr_cat_40_n02124075_12181.JPEG
vgg,5,1069,NaN,cat,cat,cr,6189_cl_dnn_cr_cat_40_n02123394_4789.JPEG
vgg,5,1070,NaN,cat,cat,cr,6190_cl_dnn_cr_cat_40_n02123159_2339.JPEG
vgg,5,1071,NaN,cat,cat,cr,6191_cl_dnn_cr_cat_40_n02123597_12816.JPEG
vgg,5,1072,NaN,cat,cat,cr,6192_cl_dnn_cr_cat_40_n02123159_7083.JPEG
vgg,5,1073,NaN,dog,cat,cr,6193_cl_dnn_cr_cat_40_n02123597_8165.JPEG
vgg,5,1074,NaN,cat,cat,cr,6194_cl_dnn_cr_cat_40_n02125311_9131.JPEG
vgg,5,1075,NaN,cat,cat,cr,6195_cl_dnn_cr_cat_40_n02125311_22037.JPEG
vgg,5,1076,NaN,cat,cat,cr,6196_cl_dnn_cr_cat_40_n02123045_9445.JPEG
vgg,5,1077,NaN,cat,cat,cr,6197_cl_dnn_cr_cat_40_n02123159_4399.JPEG
vgg,5,1078,NaN,cat,cat,cr,6198_cl_dnn_cr_cat_40_n02123394_937.JPEG
vgg,5,1079,NaN,cat,cat,cr,6199_cl_dnn_cr_cat_40_n02125311_58315.JPEG
vgg,5,1080,NaN,bear,cat,cr,6200_cl_dnn_cr_cat_40_n02125311_22026.JPEG
vgg,5,1081,NaN,bottle,bottle,cr,6201_cl_dnn_cr_bottle_40_n04591713_6164.JPEG
vgg,5,1082,NaN,bottle,bottle,cr,6202_cl_dnn_cr_bottle_40_n03937543_3493.JPEG
vgg,5,1083,NaN,bottle,bottle,cr,6203_cl_dnn_cr_bottle_40_n04560804_15492.JPEG
vgg,5,1084,NaN,bottle,bottle,cr,6204_cl_dnn_cr_bottle_40_n03983396_16981.JPEG
vgg,5,1085,NaN,bottle,bottle,cr,6205_cl_dnn_cr_bottle_40_n03983396_2671.JPEG
vgg,5,1086,NaN,bottle,bottle,cr,6206_cl_dnn_cr_bottle_40_n04591713_1174.JPEG
vgg,5,1087,NaN,bottle,bottle,cr,6207_cl_dnn_cr_bottle_40_n04557648_262.JPEG
vgg,5,1088,NaN,bottle,bottle,cr,6208_cl_dnn_cr_bottle_40_n02823428_2403.JPEG
vgg,5,1089,NaN,bottle,bottle,cr,6209_cl_dnn_cr_bottle_40_n03983396_10487.JPEG
vgg,5,1090,NaN,bottle,bottle,cr,6210_cl_dnn_cr_bottle_40_n02823428_13931.JPEG
vgg,5,1091,NaN,bottle,bottle,cr,6211_cl_dnn_cr_bottle_40_n03983396_24781.JPEG
vgg,5,1092,NaN,bottle,bottle,cr,6212_cl_dnn_cr_bottle_40_n04560804_472.JPEG
vgg,5,1093,NaN,bottle,bottle,cr,6213_cl_dnn_cr_bottle_40_n02823428_14224.JPEG
vgg,5,1094,NaN,bottle,bottle,cr,6214_cl_dnn_cr_bottle_40_n03983396_111.JPEG
vgg,5,1095,NaN,bottle,bottle,cr,6215_cl_dnn_cr_bottle_40_n04560804_15473.JPEG
vgg,5,1096,NaN,bottle,bottle,cr,6216_cl_dnn_cr_bottle_40_n03983396_5089.JPEG
vgg,5,1097,NaN,bottle,bottle,cr,6217_cl_dnn_cr_bottle_40_n04557648_2430.JPEG
vgg,5,1098,NaN,bottle,bottle,cr,6218_cl_dnn_cr_bottle_40_n04557648_10434.JPEG
vgg,5,1099,NaN,bottle,bottle,cr,6219_cl_dnn_cr_bottle_40_n03983396_9413.JPEG
vgg,5,1100,NaN,bottle,bottle,cr,6220_cl_dnn_cr_bottle_40_n02823428_4007.JPEG
vgg,5,1101,NaN,bottle,bottle,cr,6221_cl_dnn_cr_bottle_40_n03983396_5582.JPEG
vgg,5,1102,NaN,bottle,bottle,cr,6222_cl_dnn_cr_bottle_40_n02823428_6596.JPEG
vgg,5,1103,NaN,bottle,bottle,cr,6223_cl_dnn_cr_bottle_40_n02823428_3970.JPEG
vgg,5,1104,NaN,bottle,bottle,cr,6224_cl_dnn_cr_bottle_40_n04591713_5533.JPEG
vgg,5,1105,NaN,bottle,bottle,cr,6225_cl_dnn_cr_bottle_40_n04560804_6335.JPEG
vgg,5,1106,NaN,bottle,bottle,cr,6226_cl_dnn_cr_bottle_40_n04557648_1942.JPEG
vgg,5,1107,NaN,bottle,bottle,cr,6227_cl_dnn_cr_bottle_40_n04591713_5314.JPEG
vgg,5,1108,NaN,bottle,bottle,cr,6228_cl_dnn_cr_bottle_40_n04579145_5696.JPEG
vgg,5,1109,NaN,bottle,bottle,cr,6229_cl_dnn_cr_bottle_40_n03937543_3935.JPEG
vgg,5,1110,NaN,bottle,bottle,cr,6230_cl_dnn_cr_bottle_40_n03983396_2493.JPEG
vgg,5,1111,NaN,bottle,bottle,cr,6231_cl_dnn_cr_bottle_40_n04557648_631.JPEG
vgg,5,1112,NaN,bottle,bottle,cr,6232_cl_dnn_cr_bottle_40_n04591713_2817.JPEG
vgg,5,1113,NaN,bottle,bottle,cr,6233_cl_dnn_cr_bottle_40_n04579145_547.JPEG
vgg,5,1114,NaN,bottle,bottle,cr,6234_cl_dnn_cr_bottle_40_n04557648_310.JPEG
vgg,5,1115,NaN,bottle,bottle,cr,6235_cl_dnn_cr_bottle_40_n02823428_2840.JPEG
vgg,5,1116,NaN,dog,bottle,cr,6236_cl_dnn_cr_bottle_40_n04560804_6514.JPEG
vgg,5,1117,NaN,bottle,bottle,cr,6237_cl_dnn_cr_bottle_40_n03937543_11911.JPEG
vgg,5,1118,NaN,bottle,bottle,cr,6238_cl_dnn_cr_bottle_40_n04579145_5078.JPEG
vgg,5,1119,NaN,bottle,bottle,cr,6239_cl_dnn_cr_bottle_40_n03983396_1559.JPEG
vgg,5,1120,NaN,bottle,bottle,cr,6240_cl_dnn_cr_bottle_40_n03937543_10438.JPEG
vgg,5,1121,NaN,truck,truck,cr,6241_cl_dnn_cr_truck_40_n04467665_11851.JPEG
vgg,5,1122,NaN,truck,truck,cr,6242_cl_dnn_cr_truck_40_n03417042_9018.JPEG
vgg,5,1123,NaN,truck,truck,cr,6243_cl_dnn_cr_truck_40_n03796401_2012.JPEG
vgg,5,1124,NaN,truck,truck,cr,6244_cl_dnn_cr_truck_40_n04467665_10245.JPEG
vgg,5,1125,NaN,truck,truck,cr,6245_cl_dnn_cr_truck_40_n04467665_52595.JPEG
vgg,5,1126,NaN,truck,truck,cr,6246_cl_dnn_cr_truck_40_n03796401_19447.JPEG
vgg,5,1127,NaN,truck,truck,cr,6247_cl_dnn_cr_truck_40_n03417042_29412.JPEG
vgg,5,1128,NaN,truck,truck,cr,6248_cl_dnn_cr_truck_40_n03796401_13349.JPEG
vgg,5,1129,NaN,truck,truck,cr,6249_cl_dnn_cr_truck_40_n03796401_26126.JPEG
vgg,5,1130,NaN,truck,truck,cr,6250_cl_dnn_cr_truck_40_n03796401_12730.JPEG
vgg,5,1131,NaN,truck,truck,cr,6251_cl_dnn_cr_truck_40_n04467665_7928.JPEG
vgg,5,1132,NaN,truck,truck,cr,6252_cl_dnn_cr_truck_40_n04467665_2351.JPEG
vgg,5,1133,NaN,truck,truck,cr,6253_cl_dnn_cr_truck_40_n03417042_6193.JPEG
vgg,5,1134,NaN,truck,truck,cr,6254_cl_dnn_cr_truck_40_n03796401_7381.JPEG
vgg,5,1135,NaN,truck,truck,cr,6255_cl_dnn_cr_truck_40_n03796401_6607.JPEG
vgg,5,1136,NaN,truck,truck,cr,6256_cl_dnn_cr_truck_40_n04467665_906.JPEG
vgg,5,1137,NaN,truck,truck,cr,6257_cl_dnn_cr_truck_40_n03796401_21362.JPEG
vgg,5,1138,NaN,truck,truck,cr,6258_cl_dnn_cr_truck_40_n04467665_12404.JPEG
vgg,5,1139,NaN,truck,truck,cr,6259_cl_dnn_cr_truck_40_n04467665_10530.JPEG
vgg,5,1140,NaN,truck,truck,cr,6260_cl_dnn_cr_truck_40_n03417042_13013.JPEG
vgg,5,1141,NaN,truck,truck,cr,6261_cl_dnn_cr_truck_40_n04467665_26266.JPEG
vgg,5,1142,NaN,truck,truck,cr,6262_cl_dnn_cr_truck_40_n04467665_70894.JPEG
vgg,5,1143,NaN,truck,truck,cr,6263_cl_dnn_cr_truck_40_n03796401_22775.JPEG
vgg,5,1144,NaN,truck,truck,cr,6264_cl_dnn_cr_truck_40_n03796401_13870.JPEG
vgg,5,1145,NaN,truck,truck,cr,6265_cl_dnn_cr_truck_40_n03417042_19585.JPEG
vgg,5,1146,NaN,truck,truck,cr,6266_cl_dnn_cr_truck_40_n03417042_5604.JPEG
vgg,5,1147,NaN,truck,truck,cr,6267_cl_dnn_cr_truck_40_n04467665_29260.JPEG
vgg,5,1148,NaN,truck,truck,cr,6268_cl_dnn_cr_truck_40_n03417042_4511.JPEG
vgg,5,1149,NaN,truck,truck,cr,6269_cl_dnn_cr_truck_40_n03417042_7849.JPEG
vgg,5,1150,NaN,truck,truck,cr,6270_cl_dnn_cr_truck_40_n04467665_47050.JPEG
vgg,5,1151,NaN,truck,truck,cr,6271_cl_dnn_cr_truck_40_n03417042_9378.JPEG
vgg,5,1152,NaN,truck,truck,cr,6272_cl_dnn_cr_truck_40_n03417042_2909.JPEG
vgg,5,1153,NaN,truck,truck,cr,6273_cl_dnn_cr_truck_40_n03417042_742.JPEG
vgg,5,1154,NaN,truck,truck,cr,6274_cl_dnn_cr_truck_40_n03417042_11511.JPEG
vgg,5,1155,NaN,truck,truck,cr,6275_cl_dnn_cr_truck_40_n03796401_10139.JPEG
vgg,5,1156,NaN,truck,truck,cr,6276_cl_dnn_cr_truck_40_n03796401_1764.JPEG
vgg,5,1157,NaN,truck,truck,cr,6277_cl_dnn_cr_truck_40_n04467665_45409.JPEG
vgg,5,1158,NaN,truck,truck,cr,6278_cl_dnn_cr_truck_40_n03417042_12284.JPEG
vgg,5,1159,NaN,truck,truck,cr,6279_cl_dnn_cr_truck_40_n03417042_28600.JPEG
vgg,5,1160,NaN,truck,truck,cr,6280_cl_dnn_cr_truck_40_n04467665_53339.JPEG
vgg,5,1161,NaN,car,car,cr,6281_cl_dnn_cr_car_40_n03100240_8885.JPEG
vgg,5,1162,NaN,truck,car,cr,6282_cl_dnn_cr_car_40_n03100240_3408.JPEG
vgg,5,1163,NaN,car,car,cr,6283_cl_dnn_cr_car_40_n02814533_26369.JPEG
vgg,5,1164,NaN,car,car,cr,6284_cl_dnn_cr_car_40_n03100240_12545.JPEG
vgg,5,1165,NaN,car,car,cr,6285_cl_dnn_cr_car_40_n04285008_12333.JPEG
vgg,5,1166,NaN,car,car,cr,6286_cl_dnn_cr_car_40_n03100240_13549.JPEG
vgg,5,1167,NaN,car,car,cr,6287_cl_dnn_cr_car_40_n03100240_20061.JPEG
vgg,5,1168,NaN,car,car,cr,6288_cl_dnn_cr_car_40_n04285008_12909.JPEG
vgg,5,1169,NaN,truck,car,cr,6289_cl_dnn_cr_car_40_n03100240_18304.JPEG
vgg,5,1170,NaN,car,car,cr,6290_cl_dnn_cr_car_40_n02814533_69750.JPEG
vgg,5,1171,NaN,car,car,cr,6291_cl_dnn_cr_car_40_n03100240_6658.JPEG
vgg,5,1172,NaN,car,car,cr,6292_cl_dnn_cr_car_40_n03100240_8996.JPEG
vgg,5,1173,NaN,car,car,cr,6293_cl_dnn_cr_car_40_n04285008_12438.JPEG
vgg,5,1174,NaN,car,car,cr,6294_cl_dnn_cr_car_40_n04285008_11291.JPEG
vgg,5,1175,NaN,car,car,cr,6295_cl_dnn_cr_car_40_n04285008_1785.JPEG
vgg,5,1176,NaN,truck,car,cr,6296_cl_dnn_cr_car_40_n02814533_92253.JPEG
vgg,5,1177,NaN,car,car,cr,6297_cl_dnn_cr_car_40_n04285008_7150.JPEG
vgg,5,1178,NaN,car,car,cr,6298_cl_dnn_cr_car_40_n03100240_14317.JPEG
vgg,5,1179,NaN,car,car,cr,6299_cl_dnn_cr_car_40_n02814533_12388.JPEG
vgg,5,1180,NaN,car,car,cr,6300_cl_dnn_cr_car_40_n03100240_15721.JPEG
vgg,5,1181,NaN,car,car,cr,6301_cl_dnn_cr_car_40_n03100240_21834.JPEG
vgg,5,1182,NaN,car,car,cr,6302_cl_dnn_cr_car_40_n02814533_8306.JPEG
vgg,5,1183,NaN,car,car,cr,6303_cl_dnn_cr_car_40_n04285008_11410.JPEG
vgg,5,1184,NaN,car,car,cr,6304_cl_dnn_cr_car_40_n03100240_10066.JPEG
vgg,5,1185,NaN,car,car,cr,6305_cl_dnn_cr_car_40_n04285008_13291.JPEG
vgg,5,1186,NaN,car,car,cr,6306_cl_dnn_cr_car_40_n04285008_5078.JPEG
vgg,5,1187,NaN,car,car,cr,6307_cl_dnn_cr_car_40_n03100240_11445.JPEG
vgg,5,1188,NaN,car,car,cr,6308_cl_dnn_cr_car_40_n03100240_3192.JPEG
vgg,5,1189,NaN,car,car,cr,6309_cl_dnn_cr_car_40_n04285008_3950.JPEG
vgg,5,1190,NaN,car,car,cr,6310_cl_dnn_cr_car_40_n03100240_227.JPEG
vgg,5,1191,NaN,car,car,cr,6311_cl_dnn_cr_car_40_n02814533_38904.JPEG
vgg,5,1192,NaN,car,car,cr,6312_cl_dnn_cr_car_40_n03100240_2619.JPEG
vgg,5,1193,NaN,car,car,cr,6313_cl_dnn_cr_car_40_n04285008_3961.JPEG
vgg,5,1194,NaN,car,car,cr,6314_cl_dnn_cr_car_40_n03100240_4420.JPEG
vgg,5,1195,NaN,car,car,cr,6315_cl_dnn_cr_car_40_n04285008_14972.JPEG
vgg,5,1196,NaN,car,car,cr,6316_cl_dnn_cr_car_40_n03100240_7951.JPEG
vgg,5,1197,NaN,car,car,cr,6317_cl_dnn_cr_car_40_n03100240_6750.JPEG
vgg,5,1198,NaN,car,car,cr,6318_cl_dnn_cr_car_40_n03100240_646.JPEG
vgg,5,1199,NaN,car,car,cr,6319_cl_dnn_cr_car_40_n03100240_4447.JPEG
vgg,5,1200,NaN,car,car,cr,6320_cl_dnn_cr_car_40_n03100240_1520.JPEG
vgg,5,1201,NaN,bird,bird,cr,6321_cl_dnn_cr_bird_40_n01833805_11375.JPEG
vgg,5,1202,NaN,bird,bird,cr,6322_cl_dnn_cr_bird_40_n01622779_6586.JPEG
vgg,5,1203,NaN,bird,bird,cr,6323_cl_dnn_cr_bird_40_n01616318_603.JPEG
vgg,5,1204,NaN,bird,bird,cr,6324_cl_dnn_cr_bird_40_n01855032_1066.JPEG
vgg,5,1205,NaN,bird,bird,cr,6325_cl_dnn_cr_bird_40_n02027492_4943.JPEG
vgg,5,1206,NaN,bird,bird,cr,6326_cl_dnn_cr_bird_40_n02051845_8726.JPEG
vgg,5,1207,NaN,bird,bird,cr,6327_cl_dnn_cr_bird_40_n02018795_2194.JPEG
vgg,5,1208,NaN,bird,bird,cr,6328_cl_dnn_cr_bird_40_n01820546_1161.JPEG
vgg,5,1209,NaN,bird,bird,cr,6329_cl_dnn_cr_bird_40_n01622779_9539.JPEG
vgg,5,1210,NaN,bird,bird,cr,6330_cl_dnn_cr_bird_40_n02009229_4351.JPEG
vgg,5,1211,NaN,bird,bird,cr,6331_cl_dnn_cr_bird_40_n01833805_8237.JPEG
vgg,5,1212,NaN,bird,bird,cr,6332_cl_dnn_cr_bird_40_n02013706_9533.JPEG
vgg,5,1213,NaN,bird,bird,cr,6333_cl_dnn_cr_bird_40_n01592084_7632.JPEG
vgg,5,1214,NaN,bird,bird,cr,6334_cl_dnn_cr_bird_40_n01824575_8093.JPEG
vgg,5,1215,NaN,bird,bird,cr,6335_cl_dnn_cr_bird_40_n01796340_6343.JPEG
vgg,5,1216,NaN,bird,bird,cr,6336_cl_dnn_cr_bird_40_n01582220_4071.JPEG
vgg,5,1217,NaN,bird,bird,cr,6337_cl_dnn_cr_bird_40_n01855672_14691.JPEG
vgg,5,1218,NaN,bird,bird,cr,6338_cl_dnn_cr_bird_40_n02033041_2516.JPEG
vgg,5,1219,NaN,bird,bird,cr,6339_cl_dnn_cr_bird_40_n01824575_1246.JPEG
vgg,5,1220,NaN,bird,bird,cr,6340_cl_dnn_cr_bird_40_n02037110_3371.JPEG
vgg,5,1221,NaN,bird,bird,cr,6341_cl_dnn_cr_bird_40_n01537544_7133.JPEG
vgg,5,1222,NaN,bird,bird,cr,6342_cl_dnn_cr_bird_40_n01622779_7371.JPEG
vgg,5,1223,NaN,bird,bird,cr,6343_cl_dnn_cr_bird_40_n01855032_2339.JPEG
vgg,5,1224,NaN,bird,bird,cr,6344_cl_dnn_cr_bird_40_n02056570_7153.JPEG
vgg,5,1225,NaN,bird,bird,cr,6345_cl_dnn_cr_bird_40_n01855672_12858.JPEG
vgg,5,1226,NaN,bird,bird,cr,6346_cl_dnn_cr_bird_40_n01514859_24233.JPEG
vgg,5,1227,NaN,bird,bird,cr,6347_cl_dnn_cr_bird_40_n02007558_17618.JPEG
vgg,5,1228,NaN,bird,bird,cr,6348_cl_dnn_cr_bird_40_n01855672_3796.JPEG
vgg,5,1229,NaN,bird,bird,cr,6349_cl_dnn_cr_bird_40_n01843065_3221.JPEG
vgg,5,1230,NaN,bird,bird,cr,6350_cl_dnn_cr_bird_40_n01558993_1678.JPEG
vgg,5,1231,NaN,bird,bird,cr,6351_cl_dnn_cr_bird_40_n02025239_15035.JPEG
vgg,5,1232,NaN,bird,bird,cr,6352_cl_dnn_cr_bird_40_n02018207_10943.JPEG
vgg,5,1233,NaN,bird,bird,cr,6353_cl_dnn_cr_bird_40_n02002724_37.JPEG
vgg,5,1234,NaN,bird,bird,cr,6354_cl_dnn_cr_bird_40_n01828970_5031.JPEG
vgg,5,1235,NaN,bird,bird,cr,6355_cl_dnn_cr_bird_40_n01592084_4619.JPEG
vgg,5,1236,NaN,bird,bird,cr,6356_cl_dnn_cr_bird_40_n01560419_5403.JPEG
vgg,5,1237,NaN,bird,bird,cr,6357_cl_dnn_cr_bird_40_n01818515_8690.JPEG
vgg,5,1238,NaN,bird,bird,cr,6358_cl_dnn_cr_bird_40_n01797886_6067.JPEG
vgg,5,1239,NaN,bird,bird,cr,6359_cl_dnn_cr_bird_40_n02033041_3490.JPEG
vgg,5,1240,NaN,bird,bird,cr,6360_cl_dnn_cr_bird_40_n01817953_1.JPEG
vgg,5,1241,NaN,dog,dog,cr,6361_cl_dnn_cr_dog_40_n02107142_10332.JPEG
vgg,5,1242,NaN,dog,dog,cr,6362_cl_dnn_cr_dog_40_n02108422_10075.JPEG
vgg,5,1243,NaN,dog,dog,cr,6363_cl_dnn_cr_dog_40_n02101006_11222.JPEG
vgg,5,1244,NaN,dog,dog,cr,6364_cl_dnn_cr_dog_40_n02097047_4614.JPEG
vgg,5,1245,NaN,dog,dog,cr,6365_cl_dnn_cr_dog_40_n02097047_994.JPEG
vgg,5,1246,NaN,dog,dog,cr,6366_cl_dnn_cr_dog_40_n02100735_9974.JPEG
vgg,5,1247,NaN,dog,dog,cr,6367_cl_dnn_cr_dog_40_n02111500_1447.JPEG
vgg,5,1248,NaN,dog,dog,cr,6368_cl_dnn_cr_dog_40_n02105251_1416.JPEG
vgg,5,1249,NaN,dog,dog,cr,6369_cl_dnn_cr_dog_40_n02094433_1777.JPEG
vgg,5,1250,NaN,dog,dog,cr,6370_cl_dnn_cr_dog_40_n02100735_8397.JPEG
vgg,5,1251,NaN,dog,dog,cr,6371_cl_dnn_cr_dog_40_n02105855_10245.JPEG
vgg,5,1252,NaN,dog,dog,cr,6372_cl_dnn_cr_dog_40_n02094258_2859.JPEG
vgg,5,1253,NaN,dog,dog,cr,6373_cl_dnn_cr_dog_40_n02091032_10449.JPEG
vgg,5,1254,NaN,dog,dog,cr,6374_cl_dnn_cr_dog_40_n02105056_4486.JPEG
vgg,5,1255,NaN,dog,dog,cr,6375_cl_dnn_cr_dog_40_n02102318_14785.JPEG
vgg,5,1256,NaN,dog,dog,cr,6376_cl_dnn_cr_dog_40_n02093859_2233.JPEG
vgg,5,1257,NaN,dog,dog,cr,6377_cl_dnn_cr_dog_40_n02096437_1212.JPEG
vgg,5,1258,NaN,dog,dog,cr,6378_cl_dnn_cr_dog_40_n02111500_8148.JPEG
vgg,5,1259,NaN,dog,dog,cr,6379_cl_dnn_cr_dog_40_n02091134_7350.JPEG
vgg,5,1260,NaN,dog,dog,cr,6380_cl_dnn_cr_dog_40_n02091467_10908.JPEG
vgg,5,1261,NaN,dog,dog,cr,6381_cl_dnn_cr_dog_40_n02090622_1110.JPEG
vgg,5,1262,NaN,dog,dog,cr,6382_cl_dnn_cr_dog_40_n02112018_7634.JPEG
vgg,5,1263,NaN,dog,dog,cr,6383_cl_dnn_cr_dog_40_n02091134_14932.JPEG
vgg,5,1264,NaN,dog,dog,cr,6384_cl_dnn_cr_dog_40_n02092002_22027.JPEG
vgg,5,1265,NaN,dog,dog,cr,6385_cl_dnn_cr_dog_40_n02107142_10294.JPEG
vgg,5,1266,NaN,dog,dog,cr,6386_cl_dnn_cr_dog_40_n02106550_703.JPEG
vgg,5,1267,NaN,dog,dog,cr,6387_cl_dnn_cr_dog_40_n02112350_7043.JPEG
vgg,5,1268,NaN,dog,dog,cr,6388_cl_dnn_cr_dog_40_n02097130_627.JPEG
vgg,5,1269,NaN,dog,dog,cr,6389_cl_dnn_cr_dog_40_n02109961_4658.JPEG
vgg,5,1270,NaN,dog,dog,cr,6390_cl_dnn_cr_dog_40_n02104365_5953.JPEG
vgg,5,1271,NaN,dog,dog,cr,6391_cl_dnn_cr_dog_40_n02086646_8899.JPEG
vgg,5,1272,NaN,dog,dog,cr,6392_cl_dnn_cr_dog_40_n02108551_3598.JPEG
vgg,5,1273,NaN,dog,dog,cr,6393_cl_dnn_cr_dog_40_n02097047_680.JPEG
vgg,5,1274,NaN,dog,dog,cr,6394_cl_dnn_cr_dog_40_n02100735_1182.JPEG
vgg,5,1275,NaN,dog,dog,cr,6395_cl_dnn_cr_dog_40_n02093647_3547.JPEG
vgg,5,1276,NaN,dog,dog,cr,6396_cl_dnn_cr_dog_40_n02093754_3464.JPEG
vgg,5,1277,NaN,dog,dog,cr,6397_cl_dnn_cr_dog_40_n02090379_4423.JPEG
vgg,5,1278,NaN,dog,dog,cr,6398_cl_dnn_cr_dog_40_n02107142_14425.JPEG
vgg,5,1279,NaN,dog,dog,cr,6399_cl_dnn_cr_dog_40_n02111500_1474.JPEG
vgg,5,1280,NaN,dog,dog,cr,6400_cl_dnn_cr_dog_40_n02105056_3088.JPEG
