subj,session,trial,rt,object_response,category,condition,imagename
alexnet,1,1,NaN,knife,knife,bw,0001_cl_dnn_bw_knife_40_n03041632_32004.JPEG
alexnet,1,2,NaN,knife,knife,bw,0002_cl_dnn_bw_knife_40_n03041632_27963.JPEG
alexnet,1,3,NaN,keyboard,knife,bw,0003_cl_dnn_bw_knife_40_n03041632_45622.JPEG
alexnet,1,4,NaN,bottle,knife,bw,0004_cl_dnn_bw_knife_40_n03041632_3504.JPEG
alexnet,1,5,NaN,clock,knife,bw,0005_cl_dnn_bw_knife_40_n03041632_51339.JPEG
alexnet,1,6,NaN,knife,knife,bw,0006_cl_dnn_bw_knife_40_n03041632_11285.JPEG
alexnet,1,7,NaN,chair,knife,bw,0007_cl_dnn_bw_knife_40_n03041632_13846.JPEG
alexnet,1,8,NaN,bottle,knife,bw,0008_cl_dnn_bw_knife_40_n03041632_27022.JPEG
alexnet,1,9,NaN,knife,knife,bw,0009_cl_dnn_bw_knife_40_n03041632_24100.JPEG
alexnet,1,10,NaN,keyboard,knife,bw,0010_cl_dnn_bw_knife_40_n03041632_29037.JPEG
alexnet,1,11,NaN,knife,knife,bw,0011_cl_dnn_bw_knife_40_n03041632_17100.JPEG
alexnet,1,12,NaN,knife,knife,bw,0012_cl_dnn_bw_knife_40_n03041632_46112.JPEG
alexnet,1,13,NaN,knife,knife,bw,0013_cl_dnn_bw_knife_40_n03041632_18863.JPEG
alexnet,1,14,NaN,knife,knife,bw,0014_cl_dnn_bw_knife_40_n03041632_82197.JPEG
alexnet,1,15,NaN,knife,knife,bw,0015_cl_dnn_bw_knife_40_n03041632_89912.JPEG
alexnet,1,16,NaN,knife,knife,bw,0016_cl_dnn_bw_knife_40_n03041632_51617.JPEG
alexnet,1,17,NaN,knife,knife,bw,0017_cl_dnn_bw_knife_40_n03041632_31363.JPEG
alexnet,1,18,NaN,knife,knife,bw,0018_cl_dnn_bw_knife_40_n03041632_20576.JPEG
alexnet,1,19,NaN,knife,knife,bw,0019_cl_dnn_bw_knife_40_n03041632_40283.JPEG
alexnet,1,20,NaN,knife,knife,bw,0020_cl_dnn_bw_knife_40_n03041632_14442.JPEG
alexnet,1,21,NaN,knife,knife,bw,0021_cl_dnn_bw_knife_40_n03041632_7495.JPEG
alexnet,1,22,NaN,knife,knife,bw,0022_cl_dnn_bw_knife_40_n03041632_23736.JPEG
alexnet,1,23,NaN,dog,knife,bw,0023_cl_dnn_bw_knife_40_n03041632_94155.JPEG
alexnet,1,24,NaN,dog,knife,bw,0024_cl_dnn_bw_knife_40_n03041632_43625.JPEG
alexnet,1,25,NaN,chair,knife,bw,0025_cl_dnn_bw_knife_40_n03041632_12242.JPEG
alexnet,1,26,NaN,knife,knife,bw,0026_cl_dnn_bw_knife_40_n03041632_2386.JPEG
alexnet,1,27,NaN,clock,knife,bw,0027_cl_dnn_bw_knife_40_n03041632_81630.JPEG
alexnet,1,28,NaN,keyboard,knife,bw,0028_cl_dnn_bw_knife_40_n03041632_4269.JPEG
alexnet,1,29,NaN,knife,knife,bw,0029_cl_dnn_bw_knife_40_n03041632_32054.JPEG
alexnet,1,30,NaN,knife,knife,bw,0030_cl_dnn_bw_knife_40_n03041632_4806.JPEG
alexnet,1,31,NaN,knife,knife,bw,0031_cl_dnn_bw_knife_40_n03041632_22988.JPEG
alexnet,1,32,NaN,knife,knife,bw,0032_cl_dnn_bw_knife_40_n03041632_46422.JPEG
alexnet,1,33,NaN,clock,knife,bw,0033_cl_dnn_bw_knife_40_n03041632_13130.JPEG
alexnet,1,34,NaN,knife,knife,bw,0034_cl_dnn_bw_knife_40_n03041632_126.JPEG
alexnet,1,35,NaN,knife,knife,bw,0035_cl_dnn_bw_knife_40_n03041632_13612.JPEG
alexnet,1,36,NaN,knife,knife,bw,0036_cl_dnn_bw_knife_40_n03041632_42162.JPEG
alexnet,1,37,NaN,knife,knife,bw,0037_cl_dnn_bw_knife_40_n03041632_87339.JPEG
alexnet,1,38,NaN,knife,knife,bw,0038_cl_dnn_bw_knife_40_n03041632_86554.JPEG
alexnet,1,39,NaN,knife,knife,bw,0039_cl_dnn_bw_knife_40_n03041632_2390.JPEG
alexnet,1,40,NaN,knife,knife,bw,0040_cl_dnn_bw_knife_40_n03041632_32459.JPEG
alexnet,1,41,NaN,keyboard,keyboard,bw,0041_cl_dnn_bw_keyboard_40_n04505470_10690.JPEG
alexnet,1,42,NaN,keyboard,keyboard,bw,0042_cl_dnn_bw_keyboard_40_n03085013_24521.JPEG
alexnet,1,43,NaN,keyboard,keyboard,bw,0043_cl_dnn_bw_keyboard_40_n04505470_1157.JPEG
alexnet,1,44,NaN,keyboard,keyboard,bw,0044_cl_dnn_bw_keyboard_40_n03085013_31238.JPEG
alexnet,1,45,NaN,keyboard,keyboard,bw,0045_cl_dnn_bw_keyboard_40_n03085013_9156.JPEG
alexnet,1,46,NaN,keyboard,keyboard,bw,0046_cl_dnn_bw_keyboard_40_n04505470_2889.JPEG
alexnet,1,47,NaN,keyboard,keyboard,bw,0047_cl_dnn_bw_keyboard_40_n04505470_2518.JPEG
alexnet,1,48,NaN,keyboard,keyboard,bw,0048_cl_dnn_bw_keyboard_40_n03085013_1193.JPEG
alexnet,1,49,NaN,keyboard,keyboard,bw,0049_cl_dnn_bw_keyboard_40_n03085013_5611.JPEG
alexnet,1,50,NaN,keyboard,keyboard,bw,0050_cl_dnn_bw_keyboard_40_n03085013_7091.JPEG
alexnet,1,51,NaN,keyboard,keyboard,bw,0051_cl_dnn_bw_keyboard_40_n04505470_9741.JPEG
alexnet,1,52,NaN,keyboard,keyboard,bw,0052_cl_dnn_bw_keyboard_40_n04505470_10786.JPEG
alexnet,1,53,NaN,keyboard,keyboard,bw,0053_cl_dnn_bw_keyboard_40_n03085013_3691.JPEG
alexnet,1,54,NaN,keyboard,keyboard,bw,0054_cl_dnn_bw_keyboard_40_n03085013_7913.JPEG
alexnet,1,55,NaN,keyboard,keyboard,bw,0055_cl_dnn_bw_keyboard_40_n03085013_7317.JPEG
alexnet,1,56,NaN,keyboard,keyboard,bw,0056_cl_dnn_bw_keyboard_40_n03085013_18902.JPEG
alexnet,1,57,NaN,keyboard,keyboard,bw,0057_cl_dnn_bw_keyboard_40_n03085013_24161.JPEG
alexnet,1,58,NaN,keyboard,keyboard,bw,0058_cl_dnn_bw_keyboard_40_n03085013_27859.JPEG
alexnet,1,59,NaN,keyboard,keyboard,bw,0059_cl_dnn_bw_keyboard_40_n04505470_3345.JPEG
alexnet,1,60,NaN,keyboard,keyboard,bw,0060_cl_dnn_bw_keyboard_40_n03085013_9533.JPEG
alexnet,1,61,NaN,keyboard,keyboard,bw,0061_cl_dnn_bw_keyboard_40_n04505470_510.JPEG
alexnet,1,62,NaN,keyboard,keyboard,bw,0062_cl_dnn_bw_keyboard_40_n03085013_19345.JPEG
alexnet,1,63,NaN,keyboard,keyboard,bw,0063_cl_dnn_bw_keyboard_40_n03085013_23697.JPEG
alexnet,1,64,NaN,keyboard,keyboard,bw,0064_cl_dnn_bw_keyboard_40_n04505470_4748.JPEG
alexnet,1,65,NaN,keyboard,keyboard,bw,0065_cl_dnn_bw_keyboard_40_n03085013_28083.JPEG
alexnet,1,66,NaN,keyboard,keyboard,bw,0066_cl_dnn_bw_keyboard_40_n04505470_4243.JPEG
alexnet,1,67,NaN,keyboard,keyboard,bw,0067_cl_dnn_bw_keyboard_40_n04505470_1375.JPEG
alexnet,1,68,NaN,keyboard,keyboard,bw,0068_cl_dnn_bw_keyboard_40_n03085013_7285.JPEG
alexnet,1,69,NaN,keyboard,keyboard,bw,0069_cl_dnn_bw_keyboard_40_n04505470_5056.JPEG
alexnet,1,70,NaN,keyboard,keyboard,bw,0070_cl_dnn_bw_keyboard_40_n04505470_8754.JPEG
alexnet,1,71,NaN,keyboard,keyboard,bw,0071_cl_dnn_bw_keyboard_40_n03085013_24250.JPEG
alexnet,1,72,NaN,keyboard,keyboard,bw,0072_cl_dnn_bw_keyboard_40_n03085013_18876.JPEG
alexnet,1,73,NaN,keyboard,keyboard,bw,0073_cl_dnn_bw_keyboard_40_n04505470_7499.JPEG
alexnet,1,74,NaN,keyboard,keyboard,bw,0074_cl_dnn_bw_keyboard_40_n03085013_21263.JPEG
alexnet,1,75,NaN,keyboard,keyboard,bw,0075_cl_dnn_bw_keyboard_40_n03085013_9318.JPEG
alexnet,1,76,NaN,keyboard,keyboard,bw,0076_cl_dnn_bw_keyboard_40_n04505470_2158.JPEG
alexnet,1,77,NaN,keyboard,keyboard,bw,0077_cl_dnn_bw_keyboard_40_n03085013_2300.JPEG
alexnet,1,78,NaN,keyboard,keyboard,bw,0078_cl_dnn_bw_keyboard_40_n04505470_6.JPEG
alexnet,1,79,NaN,keyboard,keyboard,bw,0079_cl_dnn_bw_keyboard_40_n04505470_4477.JPEG
alexnet,1,80,NaN,keyboard,keyboard,bw,0080_cl_dnn_bw_keyboard_40_n04505470_284.JPEG
alexnet,1,81,NaN,elephant,elephant,bw,0081_cl_dnn_bw_elephant_40_n02504458_10444.JPEG
alexnet,1,82,NaN,bottle,elephant,bw,0082_cl_dnn_bw_elephant_40_n02504013_3911.JPEG
alexnet,1,83,NaN,elephant,elephant,bw,0083_cl_dnn_bw_elephant_40_n02504013_3138.JPEG
alexnet,1,84,NaN,bear,elephant,bw,0084_cl_dnn_bw_elephant_40_n02504013_6379.JPEG
alexnet,1,85,NaN,elephant,elephant,bw,0085_cl_dnn_bw_elephant_40_n02504458_4.JPEG
alexnet,1,86,NaN,elephant,elephant,bw,0086_cl_dnn_bw_elephant_40_n02504458_4763.JPEG
alexnet,1,87,NaN,elephant,elephant,bw,0087_cl_dnn_bw_elephant_40_n02504458_6993.JPEG
alexnet,1,88,NaN,elephant,elephant,bw,0088_cl_dnn_bw_elephant_40_n02504458_6830.JPEG
alexnet,1,89,NaN,elephant,elephant,bw,0089_cl_dnn_bw_elephant_40_n02504458_5251.JPEG
alexnet,1,90,NaN,elephant,elephant,bw,0090_cl_dnn_bw_elephant_40_n02504458_690.JPEG
alexnet,1,91,NaN,elephant,elephant,bw,0091_cl_dnn_bw_elephant_40_n02504013_10184.JPEG
alexnet,1,92,NaN,elephant,elephant,bw,0092_cl_dnn_bw_elephant_40_n02504458_4052.JPEG
alexnet,1,93,NaN,elephant,elephant,bw,0093_cl_dnn_bw_elephant_40_n02504458_3579.JPEG
alexnet,1,94,NaN,elephant,elephant,bw,0094_cl_dnn_bw_elephant_40_n02504458_5923.JPEG
alexnet,1,95,NaN,elephant,elephant,bw,0095_cl_dnn_bw_elephant_40_n02504013_6720.JPEG
alexnet,1,96,NaN,elephant,elephant,bw,0096_cl_dnn_bw_elephant_40_n02504458_9094.JPEG
alexnet,1,97,NaN,elephant,elephant,bw,0097_cl_dnn_bw_elephant_40_n02504458_7805.JPEG
alexnet,1,98,NaN,elephant,elephant,bw,0098_cl_dnn_bw_elephant_40_n02504013_133.JPEG
alexnet,1,99,NaN,dog,elephant,bw,0099_cl_dnn_bw_elephant_40_n02504458_7642.JPEG
alexnet,1,100,NaN,elephant,elephant,bw,0100_cl_dnn_bw_elephant_40_n02504458_6135.JPEG
alexnet,1,101,NaN,cat,elephant,bw,0101_cl_dnn_bw_elephant_40_n02504013_8052.JPEG
alexnet,1,102,NaN,elephant,elephant,bw,0102_cl_dnn_bw_elephant_40_n02504458_4322.JPEG
alexnet,1,103,NaN,elephant,elephant,bw,0103_cl_dnn_bw_elephant_40_n02504458_7708.JPEG
alexnet,1,104,NaN,elephant,elephant,bw,0104_cl_dnn_bw_elephant_40_n02504013_11025.JPEG
alexnet,1,105,NaN,elephant,elephant,bw,0105_cl_dnn_bw_elephant_40_n02504458_952.JPEG
alexnet,1,106,NaN,elephant,elephant,bw,0106_cl_dnn_bw_elephant_40_n02504013_3459.JPEG
alexnet,1,107,NaN,elephant,elephant,bw,0107_cl_dnn_bw_elephant_40_n02504458_5995.JPEG
alexnet,1,108,NaN,elephant,elephant,bw,0108_cl_dnn_bw_elephant_40_n02504013_87.JPEG
alexnet,1,109,NaN,elephant,elephant,bw,0109_cl_dnn_bw_elephant_40_n02504013_8492.JPEG
alexnet,1,110,NaN,elephant,elephant,bw,0110_cl_dnn_bw_elephant_40_n02504458_4572.JPEG
alexnet,1,111,NaN,elephant,elephant,bw,0111_cl_dnn_bw_elephant_40_n02504458_3416.JPEG
alexnet,1,112,NaN,elephant,elephant,bw,0112_cl_dnn_bw_elephant_40_n02504458_4967.JPEG
alexnet,1,113,NaN,elephant,elephant,bw,0113_cl_dnn_bw_elephant_40_n02504013_5147.JPEG
alexnet,1,114,NaN,elephant,elephant,bw,0114_cl_dnn_bw_elephant_40_n02504013_870.JPEG
alexnet,1,115,NaN,elephant,elephant,bw,0115_cl_dnn_bw_elephant_40_n02504013_2861.JPEG
alexnet,1,116,NaN,elephant,elephant,bw,0116_cl_dnn_bw_elephant_40_n02504013_1715.JPEG
alexnet,1,117,NaN,elephant,elephant,bw,0117_cl_dnn_bw_elephant_40_n02504013_26878.JPEG
alexnet,1,118,NaN,elephant,elephant,bw,0118_cl_dnn_bw_elephant_40_n02504458_7472.JPEG
alexnet,1,119,NaN,elephant,elephant,bw,0119_cl_dnn_bw_elephant_40_n02504013_4268.JPEG
alexnet,1,120,NaN,elephant,elephant,bw,0120_cl_dnn_bw_elephant_40_n02504458_12303.JPEG
alexnet,1,121,NaN,dog,bicycle,bw,0121_cl_dnn_bw_bicycle_40_n02835271_8925.JPEG
alexnet,1,122,NaN,bicycle,bicycle,bw,0122_cl_dnn_bw_bicycle_40_n02835271_2893.JPEG
alexnet,1,123,NaN,bicycle,bicycle,bw,0123_cl_dnn_bw_bicycle_40_n02835271_1665.JPEG
alexnet,1,124,NaN,bicycle,bicycle,bw,0124_cl_dnn_bw_bicycle_40_n02835271_17649.JPEG
alexnet,1,125,NaN,bicycle,bicycle,bw,0125_cl_dnn_bw_bicycle_40_n03792782_4869.JPEG
alexnet,1,126,NaN,bicycle,bicycle,bw,0126_cl_dnn_bw_bicycle_40_n03792782_17111.JPEG
alexnet,1,127,NaN,bicycle,bicycle,bw,0127_cl_dnn_bw_bicycle_40_n03792782_6613.JPEG
alexnet,1,128,NaN,bicycle,bicycle,bw,0128_cl_dnn_bw_bicycle_40_n02835271_8928.JPEG
alexnet,1,129,NaN,bicycle,bicycle,bw,0129_cl_dnn_bw_bicycle_40_n03792782_42773.JPEG
alexnet,1,130,NaN,bicycle,bicycle,bw,0130_cl_dnn_bw_bicycle_40_n02835271_998.JPEG
alexnet,1,131,NaN,bicycle,bicycle,bw,0131_cl_dnn_bw_bicycle_40_n02835271_929.JPEG
alexnet,1,132,NaN,bicycle,bicycle,bw,0132_cl_dnn_bw_bicycle_40_n02835271_6978.JPEG
alexnet,1,133,NaN,bicycle,bicycle,bw,0133_cl_dnn_bw_bicycle_40_n03792782_1155.JPEG
alexnet,1,134,NaN,bicycle,bicycle,bw,0134_cl_dnn_bw_bicycle_40_n02835271_44763.JPEG
alexnet,1,135,NaN,boat,bicycle,bw,0135_cl_dnn_bw_bicycle_40_n03792782_6160.JPEG
alexnet,1,136,NaN,bicycle,bicycle,bw,0136_cl_dnn_bw_bicycle_40_n03792782_7477.JPEG
alexnet,1,137,NaN,bicycle,bicycle,bw,0137_cl_dnn_bw_bicycle_40_n03792782_30362.JPEG
alexnet,1,138,NaN,bicycle,bicycle,bw,0138_cl_dnn_bw_bicycle_40_n02835271_8212.JPEG
alexnet,1,139,NaN,bicycle,bicycle,bw,0139_cl_dnn_bw_bicycle_40_n03792782_6192.JPEG
alexnet,1,140,NaN,bicycle,bicycle,bw,0140_cl_dnn_bw_bicycle_40_n02835271_13919.JPEG
alexnet,1,141,NaN,bicycle,bicycle,bw,0141_cl_dnn_bw_bicycle_40_n03792782_11493.JPEG
alexnet,1,142,NaN,boat,bicycle,bw,0142_cl_dnn_bw_bicycle_40_n02835271_7873.JPEG
alexnet,1,143,NaN,bicycle,bicycle,bw,0143_cl_dnn_bw_bicycle_40_n03792782_35912.JPEG
alexnet,1,144,NaN,bicycle,bicycle,bw,0144_cl_dnn_bw_bicycle_40_n03792782_7713.JPEG
alexnet,1,145,NaN,bicycle,bicycle,bw,0145_cl_dnn_bw_bicycle_40_n03792782_1853.JPEG
alexnet,1,146,NaN,bicycle,bicycle,bw,0146_cl_dnn_bw_bicycle_40_n02835271_23286.JPEG
alexnet,1,147,NaN,bicycle,bicycle,bw,0147_cl_dnn_bw_bicycle_40_n03792782_8087.JPEG
alexnet,1,148,NaN,bicycle,bicycle,bw,0148_cl_dnn_bw_bicycle_40_n03792782_7143.JPEG
alexnet,1,149,NaN,truck,bicycle,bw,0149_cl_dnn_bw_bicycle_40_n03792782_5204.JPEG
alexnet,1,150,NaN,bicycle,bicycle,bw,0150_cl_dnn_bw_bicycle_40_n03792782_636.JPEG
alexnet,1,151,NaN,bicycle,bicycle,bw,0151_cl_dnn_bw_bicycle_40_n02835271_12847.JPEG
alexnet,1,152,NaN,bicycle,bicycle,bw,0152_cl_dnn_bw_bicycle_40_n03792782_18665.JPEG
alexnet,1,153,NaN,bicycle,bicycle,bw,0153_cl_dnn_bw_bicycle_40_n03792782_7604.JPEG
alexnet,1,154,NaN,bicycle,bicycle,bw,0154_cl_dnn_bw_bicycle_40_n02835271_2871.JPEG
alexnet,1,155,NaN,bicycle,bicycle,bw,0155_cl_dnn_bw_bicycle_40_n03792782_11306.JPEG
alexnet,1,156,NaN,bicycle,bicycle,bw,0156_cl_dnn_bw_bicycle_40_n03792782_6194.JPEG
alexnet,1,157,NaN,bicycle,bicycle,bw,0157_cl_dnn_bw_bicycle_40_n03792782_10366.JPEG
alexnet,1,158,NaN,bicycle,bicycle,bw,0158_cl_dnn_bw_bicycle_40_n03792782_5106.JPEG
alexnet,1,159,NaN,bicycle,bicycle,bw,0159_cl_dnn_bw_bicycle_40_n03792782_13438.JPEG
alexnet,1,160,NaN,bicycle,bicycle,bw,0160_cl_dnn_bw_bicycle_40_n03792782_5864.JPEG
alexnet,1,161,NaN,airplane,airplane,bw,0161_cl_dnn_bw_airplane_40_n02690373_7300.JPEG
alexnet,1,162,NaN,airplane,airplane,bw,0162_cl_dnn_bw_airplane_40_n02690373_3059.JPEG
alexnet,1,163,NaN,airplane,airplane,bw,0163_cl_dnn_bw_airplane_40_n02690373_4608.JPEG
alexnet,1,164,NaN,airplane,airplane,bw,0164_cl_dnn_bw_airplane_40_n02690373_9680.JPEG
alexnet,1,165,NaN,airplane,airplane,bw,0165_cl_dnn_bw_airplane_40_n02690373_18468.JPEG
alexnet,1,166,NaN,airplane,airplane,bw,0166_cl_dnn_bw_airplane_40_n02690373_3074.JPEG
alexnet,1,167,NaN,airplane,airplane,bw,0167_cl_dnn_bw_airplane_40_n02690373_5712.JPEG
alexnet,1,168,NaN,airplane,airplane,bw,0168_cl_dnn_bw_airplane_40_n02690373_7387.JPEG
alexnet,1,169,NaN,airplane,airplane,bw,0169_cl_dnn_bw_airplane_40_n02690373_4691.JPEG
alexnet,1,170,NaN,boat,airplane,bw,0170_cl_dnn_bw_airplane_40_n02690373_4364.JPEG
alexnet,1,171,NaN,airplane,airplane,bw,0171_cl_dnn_bw_airplane_40_n02690373_2293.JPEG
alexnet,1,172,NaN,airplane,airplane,bw,0172_cl_dnn_bw_airplane_40_n02690373_5344.JPEG
alexnet,1,173,NaN,airplane,airplane,bw,0173_cl_dnn_bw_airplane_40_n02690373_9662.JPEG
alexnet,1,174,NaN,airplane,airplane,bw,0174_cl_dnn_bw_airplane_40_n02690373_2514.JPEG
alexnet,1,175,NaN,airplane,airplane,bw,0175_cl_dnn_bw_airplane_40_n02690373_9622.JPEG
alexnet,1,176,NaN,airplane,airplane,bw,0176_cl_dnn_bw_airplane_40_n02690373_5980.JPEG
alexnet,1,177,NaN,airplane,airplane,bw,0177_cl_dnn_bw_airplane_40_n02690373_20242.JPEG
alexnet,1,178,NaN,airplane,airplane,bw,0178_cl_dnn_bw_airplane_40_n02690373_7465.JPEG
alexnet,1,179,NaN,airplane,airplane,bw,0179_cl_dnn_bw_airplane_40_n02690373_6363.JPEG
alexnet,1,180,NaN,airplane,airplane,bw,0180_cl_dnn_bw_airplane_40_n02690373_2313.JPEG
alexnet,1,181,NaN,airplane,airplane,bw,0181_cl_dnn_bw_airplane_40_n02690373_2130.JPEG
alexnet,1,182,NaN,airplane,airplane,bw,0182_cl_dnn_bw_airplane_40_n02690373_2525.JPEG
alexnet,1,183,NaN,airplane,airplane,bw,0183_cl_dnn_bw_airplane_40_n02690373_4009.JPEG
alexnet,1,184,NaN,airplane,airplane,bw,0184_cl_dnn_bw_airplane_40_n02690373_6429.JPEG
alexnet,1,185,NaN,airplane,airplane,bw,0185_cl_dnn_bw_airplane_40_n02690373_10114.JPEG
alexnet,1,186,NaN,airplane,airplane,bw,0186_cl_dnn_bw_airplane_40_n02690373_7276.JPEG
alexnet,1,187,NaN,airplane,airplane,bw,0187_cl_dnn_bw_airplane_40_n02690373_3988.JPEG
alexnet,1,188,NaN,airplane,airplane,bw,0188_cl_dnn_bw_airplane_40_n02690373_17157.JPEG
alexnet,1,189,NaN,airplane,airplane,bw,0189_cl_dnn_bw_airplane_40_n02690373_20071.JPEG
alexnet,1,190,NaN,airplane,airplane,bw,0190_cl_dnn_bw_airplane_40_n02690373_13324.JPEG
alexnet,1,191,NaN,airplane,airplane,bw,0191_cl_dnn_bw_airplane_40_n02690373_8141.JPEG
alexnet,1,192,NaN,airplane,airplane,bw,0192_cl_dnn_bw_airplane_40_n02690373_2730.JPEG
alexnet,1,193,NaN,airplane,airplane,bw,0193_cl_dnn_bw_airplane_40_n02690373_7676.JPEG
alexnet,1,194,NaN,airplane,airplane,bw,0194_cl_dnn_bw_airplane_40_n02690373_4128.JPEG
alexnet,1,195,NaN,airplane,airplane,bw,0195_cl_dnn_bw_airplane_40_n02690373_6090.JPEG
alexnet,1,196,NaN,airplane,airplane,bw,0196_cl_dnn_bw_airplane_40_n02690373_9626.JPEG
alexnet,1,197,NaN,airplane,airplane,bw,0197_cl_dnn_bw_airplane_40_n02690373_7409.JPEG
alexnet,1,198,NaN,airplane,airplane,bw,0198_cl_dnn_bw_airplane_40_n02690373_4641.JPEG
alexnet,1,199,NaN,airplane,airplane,bw,0199_cl_dnn_bw_airplane_40_n02690373_1071.JPEG
alexnet,1,200,NaN,airplane,airplane,bw,0200_cl_dnn_bw_airplane_40_n02690373_1469.JPEG
alexnet,1,201,NaN,clock,clock,bw,0201_cl_dnn_bw_clock_40_n03196217_7431.JPEG
alexnet,1,202,NaN,clock,clock,bw,0202_cl_dnn_bw_clock_40_n03196217_2009.JPEG
alexnet,1,203,NaN,clock,clock,bw,0203_cl_dnn_bw_clock_40_n02708093_2394.JPEG
alexnet,1,204,NaN,clock,clock,bw,0204_cl_dnn_bw_clock_40_n02708093_2054.JPEG
alexnet,1,205,NaN,clock,clock,bw,0205_cl_dnn_bw_clock_40_n02708093_6929.JPEG
alexnet,1,206,NaN,clock,clock,bw,0206_cl_dnn_bw_clock_40_n02708093_8390.JPEG
alexnet,1,207,NaN,clock,clock,bw,0207_cl_dnn_bw_clock_40_n02708093_2530.JPEG
alexnet,1,208,NaN,clock,clock,bw,0208_cl_dnn_bw_clock_40_n04548280_2336.JPEG
alexnet,1,209,NaN,truck,clock,bw,0209_cl_dnn_bw_clock_40_n03196217_2665.JPEG
alexnet,1,210,NaN,clock,clock,bw,0210_cl_dnn_bw_clock_40_n02708093_3743.JPEG
alexnet,1,211,NaN,clock,clock,bw,0211_cl_dnn_bw_clock_40_n02708093_6730.JPEG
alexnet,1,212,NaN,clock,clock,bw,0212_cl_dnn_bw_clock_40_n03196217_55.JPEG
alexnet,1,213,NaN,clock,clock,bw,0213_cl_dnn_bw_clock_40_n02708093_597.JPEG
alexnet,1,214,NaN,bottle,clock,bw,0214_cl_dnn_bw_clock_40_n03196217_8070.JPEG
alexnet,1,215,NaN,clock,clock,bw,0215_cl_dnn_bw_clock_40_n04548280_7854.JPEG
alexnet,1,216,NaN,bottle,clock,bw,0216_cl_dnn_bw_clock_40_n04548280_8618.JPEG
alexnet,1,217,NaN,clock,clock,bw,0217_cl_dnn_bw_clock_40_n02708093_2345.JPEG
alexnet,1,218,NaN,clock,clock,bw,0218_cl_dnn_bw_clock_40_n04548280_4390.JPEG
alexnet,1,219,NaN,clock,clock,bw,0219_cl_dnn_bw_clock_40_n04548280_7816.JPEG
alexnet,1,220,NaN,bottle,clock,bw,0220_cl_dnn_bw_clock_40_n04548280_9646.JPEG
alexnet,1,221,NaN,clock,clock,bw,0221_cl_dnn_bw_clock_40_n03196217_1611.JPEG
alexnet,1,222,NaN,clock,clock,bw,0222_cl_dnn_bw_clock_40_n04548280_2650.JPEG
alexnet,1,223,NaN,clock,clock,bw,0223_cl_dnn_bw_clock_40_n04548280_2356.JPEG
alexnet,1,224,NaN,clock,clock,bw,0224_cl_dnn_bw_clock_40_n04548280_2788.JPEG
alexnet,1,225,NaN,clock,clock,bw,0225_cl_dnn_bw_clock_40_n04548280_20518.JPEG
alexnet,1,226,NaN,clock,clock,bw,0226_cl_dnn_bw_clock_40_n02708093_7007.JPEG
alexnet,1,227,NaN,clock,clock,bw,0227_cl_dnn_bw_clock_40_n02708093_6214.JPEG
alexnet,1,228,NaN,bottle,clock,bw,0228_cl_dnn_bw_clock_40_n04548280_7490.JPEG
alexnet,1,229,NaN,clock,clock,bw,0229_cl_dnn_bw_clock_40_n03196217_3943.JPEG
alexnet,1,230,NaN,clock,clock,bw,0230_cl_dnn_bw_clock_40_n03196217_5787.JPEG
alexnet,1,231,NaN,clock,clock,bw,0231_cl_dnn_bw_clock_40_n02708093_3196.JPEG
alexnet,1,232,NaN,clock,clock,bw,0232_cl_dnn_bw_clock_40_n04548280_5406.JPEG
alexnet,1,233,NaN,chair,clock,bw,0233_cl_dnn_bw_clock_40_n04548280_4524.JPEG
alexnet,1,234,NaN,clock,clock,bw,0234_cl_dnn_bw_clock_40_n02708093_1276.JPEG
alexnet,1,235,NaN,clock,clock,bw,0235_cl_dnn_bw_clock_40_n02708093_3159.JPEG
alexnet,1,236,NaN,clock,clock,bw,0236_cl_dnn_bw_clock_40_n03196217_5217.JPEG
alexnet,1,237,NaN,clock,clock,bw,0237_cl_dnn_bw_clock_40_n04548280_7258.JPEG
alexnet,1,238,NaN,clock,clock,bw,0238_cl_dnn_bw_clock_40_n02708093_1014.JPEG
alexnet,1,239,NaN,clock,clock,bw,0239_cl_dnn_bw_clock_40_n02708093_6912.JPEG
alexnet,1,240,NaN,boat,clock,bw,0240_cl_dnn_bw_clock_40_n03196217_1162.JPEG
alexnet,1,241,NaN,oven,oven,bw,0241_cl_dnn_bw_oven_40_n04111531_7883.JPEG
alexnet,1,242,NaN,oven,oven,bw,0242_cl_dnn_bw_oven_40_n04111531_4331.JPEG
alexnet,1,243,NaN,oven,oven,bw,0243_cl_dnn_bw_oven_40_n04111531_10419.JPEG
alexnet,1,244,NaN,oven,oven,bw,0244_cl_dnn_bw_oven_40_n04111531_1847.JPEG
alexnet,1,245,NaN,oven,oven,bw,0245_cl_dnn_bw_oven_40_n04111531_14876.JPEG
alexnet,1,246,NaN,oven,oven,bw,0246_cl_dnn_bw_oven_40_n04111531_9297.JPEG
alexnet,1,247,NaN,oven,oven,bw,0247_cl_dnn_bw_oven_40_n04111531_3717.JPEG
alexnet,1,248,NaN,oven,oven,bw,0248_cl_dnn_bw_oven_40_n04111531_9176.JPEG
alexnet,1,249,NaN,chair,oven,bw,0249_cl_dnn_bw_oven_40_n04111531_3805.JPEG
alexnet,1,250,NaN,oven,oven,bw,0250_cl_dnn_bw_oven_40_n04111531_8852.JPEG
alexnet,1,251,NaN,oven,oven,bw,0251_cl_dnn_bw_oven_40_n04111531_18430.JPEG
alexnet,1,252,NaN,oven,oven,bw,0252_cl_dnn_bw_oven_40_n04111531_3204.JPEG
alexnet,1,253,NaN,chair,oven,bw,0253_cl_dnn_bw_oven_40_n04111531_3063.JPEG
alexnet,1,254,NaN,oven,oven,bw,0254_cl_dnn_bw_oven_40_n04111531_2133.JPEG
alexnet,1,255,NaN,oven,oven,bw,0255_cl_dnn_bw_oven_40_n04111531_11287.JPEG
alexnet,1,256,NaN,truck,oven,bw,0256_cl_dnn_bw_oven_40_n04111531_2922.JPEG
alexnet,1,257,NaN,oven,oven,bw,0257_cl_dnn_bw_oven_40_n04111531_4868.JPEG
alexnet,1,258,NaN,oven,oven,bw,0258_cl_dnn_bw_oven_40_n04111531_2027.JPEG
alexnet,1,259,NaN,oven,oven,bw,0259_cl_dnn_bw_oven_40_n04111531_4750.JPEG
alexnet,1,260,NaN,oven,oven,bw,0260_cl_dnn_bw_oven_40_n04111531_4250.JPEG
alexnet,1,261,NaN,oven,oven,bw,0261_cl_dnn_bw_oven_40_n04111531_17004.JPEG
alexnet,1,262,NaN,oven,oven,bw,0262_cl_dnn_bw_oven_40_n04111531_20056.JPEG
alexnet,1,263,NaN,oven,oven,bw,0263_cl_dnn_bw_oven_40_n04111531_2771.JPEG
alexnet,1,264,NaN,oven,oven,bw,0264_cl_dnn_bw_oven_40_n04111531_14269.JPEG
alexnet,1,265,NaN,oven,oven,bw,0265_cl_dnn_bw_oven_40_n04111531_20493.JPEG
alexnet,1,266,NaN,dog,oven,bw,0266_cl_dnn_bw_oven_40_n04111531_9380.JPEG
alexnet,1,267,NaN,oven,oven,bw,0267_cl_dnn_bw_oven_40_n04111531_8009.JPEG
alexnet,1,268,NaN,oven,oven,bw,0268_cl_dnn_bw_oven_40_n04111531_21068.JPEG
alexnet,1,269,NaN,oven,oven,bw,0269_cl_dnn_bw_oven_40_n04111531_5940.JPEG
alexnet,1,270,NaN,oven,oven,bw,0270_cl_dnn_bw_oven_40_n04111531_21120.JPEG
alexnet,1,271,NaN,dog,oven,bw,0271_cl_dnn_bw_oven_40_n04111531_12129.JPEG
alexnet,1,272,NaN,oven,oven,bw,0272_cl_dnn_bw_oven_40_n04111531_2650.JPEG
alexnet,1,273,NaN,oven,oven,bw,0273_cl_dnn_bw_oven_40_n04111531_23830.JPEG
alexnet,1,274,NaN,oven,oven,bw,0274_cl_dnn_bw_oven_40_n04111531_13520.JPEG
alexnet,1,275,NaN,oven,oven,bw,0275_cl_dnn_bw_oven_40_n04111531_1752.JPEG
alexnet,1,276,NaN,oven,oven,bw,0276_cl_dnn_bw_oven_40_n04111531_4959.JPEG
alexnet,1,277,NaN,oven,oven,bw,0277_cl_dnn_bw_oven_40_n04111531_12103.JPEG
alexnet,1,278,NaN,oven,oven,bw,0278_cl_dnn_bw_oven_40_n04111531_18648.JPEG
alexnet,1,279,NaN,oven,oven,bw,0279_cl_dnn_bw_oven_40_n04111531_6445.JPEG
alexnet,1,280,NaN,oven,oven,bw,0280_cl_dnn_bw_oven_40_n04111531_20591.JPEG
alexnet,1,281,NaN,chair,chair,bw,0281_cl_dnn_bw_chair_40_n02791124_3011.JPEG
alexnet,1,282,NaN,chair,chair,bw,0282_cl_dnn_bw_chair_40_n04429376_53848.JPEG
alexnet,1,283,NaN,chair,chair,bw,0283_cl_dnn_bw_chair_40_n04429376_11665.JPEG
alexnet,1,284,NaN,chair,chair,bw,0284_cl_dnn_bw_chair_40_n03376595_10569.JPEG
alexnet,1,285,NaN,chair,chair,bw,0285_cl_dnn_bw_chair_40_n04429376_3955.JPEG
alexnet,1,286,NaN,chair,chair,bw,0286_cl_dnn_bw_chair_40_n03376595_16306.JPEG
alexnet,1,287,NaN,chair,chair,bw,0287_cl_dnn_bw_chair_40_n04099969_10351.JPEG
alexnet,1,288,NaN,chair,chair,bw,0288_cl_dnn_bw_chair_40_n02791124_16253.JPEG
alexnet,1,289,NaN,chair,chair,bw,0289_cl_dnn_bw_chair_40_n03376595_6659.JPEG
alexnet,1,290,NaN,chair,chair,bw,0290_cl_dnn_bw_chair_40_n04429376_8124.JPEG
alexnet,1,291,NaN,keyboard,chair,bw,0291_cl_dnn_bw_chair_40_n03376595_10102.JPEG
alexnet,1,292,NaN,chair,chair,bw,0292_cl_dnn_bw_chair_40_n02791124_2614.JPEG
alexnet,1,293,NaN,chair,chair,bw,0293_cl_dnn_bw_chair_40_n04099969_1527.JPEG
alexnet,1,294,NaN,chair,chair,bw,0294_cl_dnn_bw_chair_40_n04099969_24826.JPEG
alexnet,1,295,NaN,chair,chair,bw,0295_cl_dnn_bw_chair_40_n02791124_12543.JPEG
alexnet,1,296,NaN,chair,chair,bw,0296_cl_dnn_bw_chair_40_n04099969_39507.JPEG
alexnet,1,297,NaN,chair,chair,bw,0297_cl_dnn_bw_chair_40_n03376595_10293.JPEG
alexnet,1,298,NaN,chair,chair,bw,0298_cl_dnn_bw_chair_40_n04429376_29750.JPEG
alexnet,1,299,NaN,chair,chair,bw,0299_cl_dnn_bw_chair_40_n02791124_3335.JPEG
alexnet,1,300,NaN,chair,chair,bw,0300_cl_dnn_bw_chair_40_n04099969_10014.JPEG
alexnet,1,301,NaN,chair,chair,bw,0301_cl_dnn_bw_chair_40_n03376595_10690.JPEG
alexnet,1,302,NaN,chair,chair,bw,0302_cl_dnn_bw_chair_40_n03376595_3347.JPEG
alexnet,1,303,NaN,chair,chair,bw,0303_cl_dnn_bw_chair_40_n04099969_5730.JPEG
alexnet,1,304,NaN,chair,chair,bw,0304_cl_dnn_bw_chair_40_n04429376_2511.JPEG
alexnet,1,305,NaN,chair,chair,bw,0305_cl_dnn_bw_chair_40_n04429376_7788.JPEG
alexnet,1,306,NaN,chair,chair,bw,0306_cl_dnn_bw_chair_40_n04429376_17646.JPEG
alexnet,1,307,NaN,chair,chair,bw,0307_cl_dnn_bw_chair_40_n04099969_8595.JPEG
alexnet,1,308,NaN,chair,chair,bw,0308_cl_dnn_bw_chair_40_n04099969_13775.JPEG
alexnet,1,309,NaN,chair,chair,bw,0309_cl_dnn_bw_chair_40_n02791124_342.JPEG
alexnet,1,310,NaN,chair,chair,bw,0310_cl_dnn_bw_chair_40_n04099969_396.JPEG
alexnet,1,311,NaN,chair,chair,bw,0311_cl_dnn_bw_chair_40_n04099969_7718.JPEG
alexnet,1,312,NaN,chair,chair,bw,0312_cl_dnn_bw_chair_40_n03376595_1766.JPEG
alexnet,1,313,NaN,chair,chair,bw,0313_cl_dnn_bw_chair_40_n04429376_34588.JPEG
alexnet,1,314,NaN,chair,chair,bw,0314_cl_dnn_bw_chair_40_n02791124_2856.JPEG
alexnet,1,315,NaN,chair,chair,bw,0315_cl_dnn_bw_chair_40_n04429376_9498.JPEG
alexnet,1,316,NaN,truck,chair,bw,0316_cl_dnn_bw_chair_40_n02791124_3170.JPEG
alexnet,1,317,NaN,chair,chair,bw,0317_cl_dnn_bw_chair_40_n04099969_8868.JPEG
alexnet,1,318,NaN,chair,chair,bw,0318_cl_dnn_bw_chair_40_n02791124_2301.JPEG
alexnet,1,319,NaN,chair,chair,bw,0319_cl_dnn_bw_chair_40_n03376595_8806.JPEG
alexnet,1,320,NaN,chair,chair,bw,0320_cl_dnn_bw_chair_40_n02791124_3161.JPEG
alexnet,1,321,NaN,dog,bear,bw,0321_cl_dnn_bw_bear_40_n02132136_21402.JPEG
alexnet,1,322,NaN,bear,bear,bw,0322_cl_dnn_bw_bear_40_n02134084_227.JPEG
alexnet,1,323,NaN,bird,bear,bw,0323_cl_dnn_bw_bear_40_n02134418_1815.JPEG
alexnet,1,324,NaN,bear,bear,bw,0324_cl_dnn_bw_bear_40_n02134418_3321.JPEG
alexnet,1,325,NaN,bear,bear,bw,0325_cl_dnn_bw_bear_40_n02132136_576.JPEG
alexnet,1,326,NaN,bear,bear,bw,0326_cl_dnn_bw_bear_40_n02132136_1671.JPEG
alexnet,1,327,NaN,bear,bear,bw,0327_cl_dnn_bw_bear_40_n02133161_4219.JPEG
alexnet,1,328,NaN,dog,bear,bw,0328_cl_dnn_bw_bear_40_n02133161_3171.JPEG
alexnet,1,329,NaN,dog,bear,bw,0329_cl_dnn_bw_bear_40_n02134418_3942.JPEG
alexnet,1,330,NaN,bear,bear,bw,0330_cl_dnn_bw_bear_40_n02133161_4348.JPEG
alexnet,1,331,NaN,bear,bear,bw,0331_cl_dnn_bw_bear_40_n02134084_595.JPEG
alexnet,1,332,NaN,bear,bear,bw,0332_cl_dnn_bw_bear_40_n02134084_14727.JPEG
alexnet,1,333,NaN,bear,bear,bw,0333_cl_dnn_bw_bear_40_n02134084_2914.JPEG
alexnet,1,334,NaN,bear,bear,bw,0334_cl_dnn_bw_bear_40_n02134418_5472.JPEG
alexnet,1,335,NaN,bear,bear,bw,0335_cl_dnn_bw_bear_40_n02134418_2575.JPEG
alexnet,1,336,NaN,bear,bear,bw,0336_cl_dnn_bw_bear_40_n02132136_23846.JPEG
alexnet,1,337,NaN,bear,bear,bw,0337_cl_dnn_bw_bear_40_n02133161_10859.JPEG
alexnet,1,338,NaN,bear,bear,bw,0338_cl_dnn_bw_bear_40_n02134418_904.JPEG
alexnet,1,339,NaN,dog,bear,bw,0339_cl_dnn_bw_bear_40_n02133161_13441.JPEG
alexnet,1,340,NaN,elephant,bear,bw,0340_cl_dnn_bw_bear_40_n02134084_15424.JPEG
alexnet,1,341,NaN,bear,bear,bw,0341_cl_dnn_bw_bear_40_n02134084_7562.JPEG
alexnet,1,342,NaN,dog,bear,bw,0342_cl_dnn_bw_bear_40_n02133161_3984.JPEG
alexnet,1,343,NaN,bear,bear,bw,0343_cl_dnn_bw_bear_40_n02133161_1271.JPEG
alexnet,1,344,NaN,dog,bear,bw,0344_cl_dnn_bw_bear_40_n02133161_2316.JPEG
alexnet,1,345,NaN,bear,bear,bw,0345_cl_dnn_bw_bear_40_n02133161_564.JPEG
alexnet,1,346,NaN,bear,bear,bw,0346_cl_dnn_bw_bear_40_n02132136_17756.JPEG
alexnet,1,347,NaN,bear,bear,bw,0347_cl_dnn_bw_bear_40_n02132136_4576.JPEG
alexnet,1,348,NaN,dog,bear,bw,0348_cl_dnn_bw_bear_40_n02133161_10966.JPEG
alexnet,1,349,NaN,bear,bear,bw,0349_cl_dnn_bw_bear_40_n02133161_10554.JPEG
alexnet,1,350,NaN,bear,bear,bw,0350_cl_dnn_bw_bear_40_n02132136_4426.JPEG
alexnet,1,351,NaN,bear,bear,bw,0351_cl_dnn_bw_bear_40_n02132136_1815.JPEG
alexnet,1,352,NaN,bear,bear,bw,0352_cl_dnn_bw_bear_40_n02132136_1822.JPEG
alexnet,1,353,NaN,bear,bear,bw,0353_cl_dnn_bw_bear_40_n02132136_22602.JPEG
alexnet,1,354,NaN,dog,bear,bw,0354_cl_dnn_bw_bear_40_n02134084_11685.JPEG
alexnet,1,355,NaN,bear,bear,bw,0355_cl_dnn_bw_bear_40_n02132136_20826.JPEG
alexnet,1,356,NaN,dog,bear,bw,0356_cl_dnn_bw_bear_40_n02133161_3908.JPEG
alexnet,1,357,NaN,bear,bear,bw,0357_cl_dnn_bw_bear_40_n02133161_1056.JPEG
alexnet,1,358,NaN,bear,bear,bw,0358_cl_dnn_bw_bear_40_n02134418_1606.JPEG
alexnet,1,359,NaN,knife,bear,bw,0359_cl_dnn_bw_bear_40_n02133161_15612.JPEG
alexnet,1,360,NaN,dog,bear,bw,0360_cl_dnn_bw_bear_40_n02132136_16063.JPEG
alexnet,1,361,NaN,boat,boat,bw,0361_cl_dnn_bw_boat_40_n03344393_1821.JPEG
alexnet,1,362,NaN,boat,boat,bw,0362_cl_dnn_bw_boat_40_n03344393_8374.JPEG
alexnet,1,363,NaN,boat,boat,bw,0363_cl_dnn_bw_boat_40_n02951358_3704.JPEG
alexnet,1,364,NaN,boat,boat,bw,0364_cl_dnn_bw_boat_40_n03344393_13914.JPEG
alexnet,1,365,NaN,boat,boat,bw,0365_cl_dnn_bw_boat_40_n03662601_1789.JPEG
alexnet,1,366,NaN,boat,boat,bw,0366_cl_dnn_bw_boat_40_n02951358_29637.JPEG
alexnet,1,367,NaN,car,boat,bw,0367_cl_dnn_bw_boat_40_n03662601_26140.JPEG
alexnet,1,368,NaN,boat,boat,bw,0368_cl_dnn_bw_boat_40_n03344393_1276.JPEG
alexnet,1,369,NaN,boat,boat,bw,0369_cl_dnn_bw_boat_40_n02951358_1470.JPEG
alexnet,1,370,NaN,boat,boat,bw,0370_cl_dnn_bw_boat_40_n02951358_14366.JPEG
alexnet,1,371,NaN,boat,boat,bw,0371_cl_dnn_bw_boat_40_n04612504_3379.JPEG
alexnet,1,372,NaN,elephant,boat,bw,0372_cl_dnn_bw_boat_40_n02951358_7554.JPEG
alexnet,1,373,NaN,airplane,boat,bw,0373_cl_dnn_bw_boat_40_n03662601_22925.JPEG
alexnet,1,374,NaN,boat,boat,bw,0374_cl_dnn_bw_boat_40_n02951358_23313.JPEG
alexnet,1,375,NaN,boat,boat,bw,0375_cl_dnn_bw_boat_40_n03662601_10724.JPEG
alexnet,1,376,NaN,boat,boat,bw,0376_cl_dnn_bw_boat_40_n04273569_7097.JPEG
alexnet,1,377,NaN,boat,boat,bw,0377_cl_dnn_bw_boat_40_n03344393_6140.JPEG
alexnet,1,378,NaN,boat,boat,bw,0378_cl_dnn_bw_boat_40_n03344393_7243.JPEG
alexnet,1,379,NaN,boat,boat,bw,0379_cl_dnn_bw_boat_40_n03662601_15566.JPEG
alexnet,1,380,NaN,boat,boat,bw,0380_cl_dnn_bw_boat_40_n02951358_7536.JPEG
alexnet,1,381,NaN,boat,boat,bw,0381_cl_dnn_bw_boat_40_n02951358_2213.JPEG
alexnet,1,382,NaN,boat,boat,bw,0382_cl_dnn_bw_boat_40_n03344393_14897.JPEG
alexnet,1,383,NaN,boat,boat,bw,0383_cl_dnn_bw_boat_40_n03344393_7921.JPEG
alexnet,1,384,NaN,boat,boat,bw,0384_cl_dnn_bw_boat_40_n02951358_12368.JPEG
alexnet,1,385,NaN,boat,boat,bw,0385_cl_dnn_bw_boat_40_n03662601_11862.JPEG
alexnet,1,386,NaN,boat,boat,bw,0386_cl_dnn_bw_boat_40_n02951358_912.JPEG
alexnet,1,387,NaN,boat,boat,bw,0387_cl_dnn_bw_boat_40_n04273569_34150.JPEG
alexnet,1,388,NaN,boat,boat,bw,0388_cl_dnn_bw_boat_40_n04612504_79.JPEG
alexnet,1,389,NaN,boat,boat,bw,0389_cl_dnn_bw_boat_40_n03344393_5126.JPEG
alexnet,1,390,NaN,bird,boat,bw,0390_cl_dnn_bw_boat_40_n03344393_12623.JPEG
alexnet,1,391,NaN,boat,boat,bw,0391_cl_dnn_bw_boat_40_n03344393_4269.JPEG
alexnet,1,392,NaN,boat,boat,bw,0392_cl_dnn_bw_boat_40_n04273569_3943.JPEG
alexnet,1,393,NaN,boat,boat,bw,0393_cl_dnn_bw_boat_40_n04273569_19971.JPEG
alexnet,1,394,NaN,boat,boat,bw,0394_cl_dnn_bw_boat_40_n02951358_34223.JPEG
alexnet,1,395,NaN,boat,boat,bw,0395_cl_dnn_bw_boat_40_n02951358_16837.JPEG
alexnet,1,396,NaN,boat,boat,bw,0396_cl_dnn_bw_boat_40_n04273569_210.JPEG
alexnet,1,397,NaN,chair,boat,bw,0397_cl_dnn_bw_boat_40_n02951358_6125.JPEG
alexnet,1,398,NaN,airplane,boat,bw,0398_cl_dnn_bw_boat_40_n04612504_11402.JPEG
alexnet,1,399,NaN,boat,boat,bw,0399_cl_dnn_bw_boat_40_n02951358_7831.JPEG
alexnet,1,400,NaN,boat,boat,bw,0400_cl_dnn_bw_boat_40_n03662601_8360.JPEG
alexnet,1,401,NaN,bird,cat,bw,0401_cl_dnn_bw_cat_40_n02123597_1328.JPEG
alexnet,1,402,NaN,cat,cat,bw,0402_cl_dnn_bw_cat_40_n02125311_17546.JPEG
alexnet,1,403,NaN,cat,cat,bw,0403_cl_dnn_bw_cat_40_n02123159_2757.JPEG
alexnet,1,404,NaN,cat,cat,bw,0404_cl_dnn_bw_cat_40_n02123597_1426.JPEG
alexnet,1,405,NaN,cat,cat,bw,0405_cl_dnn_bw_cat_40_n02125311_17440.JPEG
alexnet,1,406,NaN,chair,cat,bw,0406_cl_dnn_bw_cat_40_n02123159_1733.JPEG
alexnet,1,407,NaN,cat,cat,bw,0407_cl_dnn_bw_cat_40_n02123159_1253.JPEG
alexnet,1,408,NaN,cat,cat,bw,0408_cl_dnn_bw_cat_40_n02125311_23425.JPEG
alexnet,1,409,NaN,cat,cat,bw,0409_cl_dnn_bw_cat_40_n02123159_4962.JPEG
alexnet,1,410,NaN,cat,cat,bw,0410_cl_dnn_bw_cat_40_n02123045_5541.JPEG
alexnet,1,411,NaN,cat,cat,bw,0411_cl_dnn_bw_cat_40_n02123394_2192.JPEG
alexnet,1,412,NaN,dog,cat,bw,0412_cl_dnn_bw_cat_40_n02125311_23714.JPEG
alexnet,1,413,NaN,cat,cat,bw,0413_cl_dnn_bw_cat_40_n02124075_9224.JPEG
alexnet,1,414,NaN,cat,cat,bw,0414_cl_dnn_bw_cat_40_n02124075_3706.JPEG
alexnet,1,415,NaN,cat,cat,bw,0415_cl_dnn_bw_cat_40_n02123394_32.JPEG
alexnet,1,416,NaN,cat,cat,bw,0416_cl_dnn_bw_cat_40_n02123597_30864.JPEG
alexnet,1,417,NaN,bear,cat,bw,0417_cl_dnn_bw_cat_40_n02123597_11327.JPEG
alexnet,1,418,NaN,cat,cat,bw,0418_cl_dnn_bw_cat_40_n02123394_4662.JPEG
alexnet,1,419,NaN,cat,cat,bw,0419_cl_dnn_bw_cat_40_n02124075_10190.JPEG
alexnet,1,420,NaN,cat,cat,bw,0420_cl_dnn_bw_cat_40_n02123159_2474.JPEG
alexnet,1,421,NaN,cat,cat,bw,0421_cl_dnn_bw_cat_40_n02123597_13706.JPEG
alexnet,1,422,NaN,cat,cat,bw,0422_cl_dnn_bw_cat_40_n02123045_11034.JPEG
alexnet,1,423,NaN,cat,cat,bw,0423_cl_dnn_bw_cat_40_n02124075_637.JPEG
alexnet,1,424,NaN,cat,cat,bw,0424_cl_dnn_bw_cat_40_n02123394_292.JPEG
alexnet,1,425,NaN,cat,cat,bw,0425_cl_dnn_bw_cat_40_n02123394_76.JPEG
alexnet,1,426,NaN,dog,cat,bw,0426_cl_dnn_bw_cat_40_n02123159_4742.JPEG
alexnet,1,427,NaN,cat,cat,bw,0427_cl_dnn_bw_cat_40_n02123159_677.JPEG
alexnet,1,428,NaN,cat,cat,bw,0428_cl_dnn_bw_cat_40_n02123045_3486.JPEG
alexnet,1,429,NaN,cat,cat,bw,0429_cl_dnn_bw_cat_40_n02123159_1860.JPEG
alexnet,1,430,NaN,cat,cat,bw,0430_cl_dnn_bw_cat_40_n02123159_7103.JPEG
alexnet,1,431,NaN,cat,cat,bw,0431_cl_dnn_bw_cat_40_n02123597_10596.JPEG
alexnet,1,432,NaN,cat,cat,bw,0432_cl_dnn_bw_cat_40_n02125311_15582.JPEG
alexnet,1,433,NaN,cat,cat,bw,0433_cl_dnn_bw_cat_40_n02123597_4065.JPEG
alexnet,1,434,NaN,cat,cat,bw,0434_cl_dnn_bw_cat_40_n02125311_33244.JPEG
alexnet,1,435,NaN,cat,cat,bw,0435_cl_dnn_bw_cat_40_n02123394_6092.JPEG
alexnet,1,436,NaN,cat,cat,bw,0436_cl_dnn_bw_cat_40_n02123597_7909.JPEG
alexnet,1,437,NaN,cat,cat,bw,0437_cl_dnn_bw_cat_40_n02125311_41806.JPEG
alexnet,1,438,NaN,cat,cat,bw,0438_cl_dnn_bw_cat_40_n02124075_8465.JPEG
alexnet,1,439,NaN,cat,cat,bw,0439_cl_dnn_bw_cat_40_n02123394_482.JPEG
alexnet,1,440,NaN,cat,cat,bw,0440_cl_dnn_bw_cat_40_n02125311_34986.JPEG
alexnet,1,441,NaN,bottle,bottle,bw,0441_cl_dnn_bw_bottle_40_n03983396_351.JPEG
alexnet,1,442,NaN,bottle,bottle,bw,0442_cl_dnn_bw_bottle_40_n04560804_27696.JPEG
alexnet,1,443,NaN,bottle,bottle,bw,0443_cl_dnn_bw_bottle_40_n03983396_207.JPEG
alexnet,1,444,NaN,bottle,bottle,bw,0444_cl_dnn_bw_bottle_40_n02823428_1767.JPEG
alexnet,1,445,NaN,bottle,bottle,bw,0445_cl_dnn_bw_bottle_40_n04591713_3896.JPEG
alexnet,1,446,NaN,bottle,bottle,bw,0446_cl_dnn_bw_bottle_40_n04560804_29191.JPEG
alexnet,1,447,NaN,bottle,bottle,bw,0447_cl_dnn_bw_bottle_40_n04557648_943.JPEG
alexnet,1,448,NaN,bottle,bottle,bw,0448_cl_dnn_bw_bottle_40_n04557648_3390.JPEG
alexnet,1,449,NaN,bottle,bottle,bw,0449_cl_dnn_bw_bottle_40_n03983396_7361.JPEG
alexnet,1,450,NaN,bottle,bottle,bw,0450_cl_dnn_bw_bottle_40_n02823428_12190.JPEG
alexnet,1,451,NaN,bottle,bottle,bw,0451_cl_dnn_bw_bottle_40_n04557648_1964.JPEG
alexnet,1,452,NaN,bottle,bottle,bw,0452_cl_dnn_bw_bottle_40_n02823428_825.JPEG
alexnet,1,453,NaN,bottle,bottle,bw,0453_cl_dnn_bw_bottle_40_n04579145_139.JPEG
alexnet,1,454,NaN,keyboard,bottle,bw,0454_cl_dnn_bw_bottle_40_n04557648_6697.JPEG
alexnet,1,455,NaN,bottle,bottle,bw,0455_cl_dnn_bw_bottle_40_n02823428_7389.JPEG
alexnet,1,456,NaN,bottle,bottle,bw,0456_cl_dnn_bw_bottle_40_n02823428_13649.JPEG
alexnet,1,457,NaN,bottle,bottle,bw,0457_cl_dnn_bw_bottle_40_n04557648_8507.JPEG
alexnet,1,458,NaN,bottle,bottle,bw,0458_cl_dnn_bw_bottle_40_n04579145_6751.JPEG
alexnet,1,459,NaN,bottle,bottle,bw,0459_cl_dnn_bw_bottle_40_n02823428_3295.JPEG
alexnet,1,460,NaN,bottle,bottle,bw,0460_cl_dnn_bw_bottle_40_n04560804_14906.JPEG
alexnet,1,461,NaN,bottle,bottle,bw,0461_cl_dnn_bw_bottle_40_n03937543_2681.JPEG
alexnet,1,462,NaN,bottle,bottle,bw,0462_cl_dnn_bw_bottle_40_n04579145_3977.JPEG
alexnet,1,463,NaN,bottle,bottle,bw,0463_cl_dnn_bw_bottle_40_n03937543_10012.JPEG
alexnet,1,464,NaN,keyboard,bottle,bw,0464_cl_dnn_bw_bottle_40_n04557648_9279.JPEG
alexnet,1,465,NaN,chair,bottle,bw,0465_cl_dnn_bw_bottle_40_n04591713_5560.JPEG
alexnet,1,466,NaN,bottle,bottle,bw,0466_cl_dnn_bw_bottle_40_n04579145_4896.JPEG
alexnet,1,467,NaN,bottle,bottle,bw,0467_cl_dnn_bw_bottle_40_n03937543_3614.JPEG
alexnet,1,468,NaN,bottle,bottle,bw,0468_cl_dnn_bw_bottle_40_n04557648_27253.JPEG
alexnet,1,469,NaN,bottle,bottle,bw,0469_cl_dnn_bw_bottle_40_n04560804_15769.JPEG
alexnet,1,470,NaN,bottle,bottle,bw,0470_cl_dnn_bw_bottle_40_n04591713_4409.JPEG
alexnet,1,471,NaN,chair,bottle,bw,0471_cl_dnn_bw_bottle_40_n03983396_12232.JPEG
alexnet,1,472,NaN,bottle,bottle,bw,0472_cl_dnn_bw_bottle_40_n04579145_4938.JPEG
alexnet,1,473,NaN,bottle,bottle,bw,0473_cl_dnn_bw_bottle_40_n04591713_3412.JPEG
alexnet,1,474,NaN,bottle,bottle,bw,0474_cl_dnn_bw_bottle_40_n04579145_4648.JPEG
alexnet,1,475,NaN,bottle,bottle,bw,0475_cl_dnn_bw_bottle_40_n03983396_18508.JPEG
alexnet,1,476,NaN,bottle,bottle,bw,0476_cl_dnn_bw_bottle_40_n04557648_7185.JPEG
alexnet,1,477,NaN,bottle,bottle,bw,0477_cl_dnn_bw_bottle_40_n03937543_446.JPEG
alexnet,1,478,NaN,bottle,bottle,bw,0478_cl_dnn_bw_bottle_40_n03937543_980.JPEG
alexnet,1,479,NaN,bottle,bottle,bw,0479_cl_dnn_bw_bottle_40_n03983396_11885.JPEG
alexnet,1,480,NaN,boat,bottle,bw,0480_cl_dnn_bw_bottle_40_n04591713_703.JPEG
alexnet,1,481,NaN,truck,truck,bw,0481_cl_dnn_bw_truck_40_n04467665_55408.JPEG
alexnet,1,482,NaN,clock,truck,bw,0482_cl_dnn_bw_truck_40_n03796401_22643.JPEG
alexnet,1,483,NaN,truck,truck,bw,0483_cl_dnn_bw_truck_40_n03796401_10766.JPEG
alexnet,1,484,NaN,truck,truck,bw,0484_cl_dnn_bw_truck_40_n03417042_3406.JPEG
alexnet,1,485,NaN,truck,truck,bw,0485_cl_dnn_bw_truck_40_n04467665_65606.JPEG
alexnet,1,486,NaN,truck,truck,bw,0486_cl_dnn_bw_truck_40_n03796401_7022.JPEG
alexnet,1,487,NaN,truck,truck,bw,0487_cl_dnn_bw_truck_40_n03417042_1330.JPEG
alexnet,1,488,NaN,truck,truck,bw,0488_cl_dnn_bw_truck_40_n03796401_9446.JPEG
alexnet,1,489,NaN,truck,truck,bw,0489_cl_dnn_bw_truck_40_n04467665_15019.JPEG
alexnet,1,490,NaN,truck,truck,bw,0490_cl_dnn_bw_truck_40_n04467665_58534.JPEG
alexnet,1,491,NaN,truck,truck,bw,0491_cl_dnn_bw_truck_40_n04467665_68706.JPEG
alexnet,1,492,NaN,truck,truck,bw,0492_cl_dnn_bw_truck_40_n03417042_4157.JPEG
alexnet,1,493,NaN,truck,truck,bw,0493_cl_dnn_bw_truck_40_n03417042_14500.JPEG
alexnet,1,494,NaN,truck,truck,bw,0494_cl_dnn_bw_truck_40_n04467665_41861.JPEG
alexnet,1,495,NaN,truck,truck,bw,0495_cl_dnn_bw_truck_40_n03417042_2062.JPEG
alexnet,1,496,NaN,truck,truck,bw,0496_cl_dnn_bw_truck_40_n04467665_4782.JPEG
alexnet,1,497,NaN,truck,truck,bw,0497_cl_dnn_bw_truck_40_n03417042_2038.JPEG
alexnet,1,498,NaN,truck,truck,bw,0498_cl_dnn_bw_truck_40_n03796401_7421.JPEG
alexnet,1,499,NaN,truck,truck,bw,0499_cl_dnn_bw_truck_40_n03417042_1635.JPEG
alexnet,1,500,NaN,truck,truck,bw,0500_cl_dnn_bw_truck_40_n03417042_23296.JPEG
alexnet,1,501,NaN,truck,truck,bw,0501_cl_dnn_bw_truck_40_n04467665_37009.JPEG
alexnet,1,502,NaN,truck,truck,bw,0502_cl_dnn_bw_truck_40_n03417042_13243.JPEG
alexnet,1,503,NaN,truck,truck,bw,0503_cl_dnn_bw_truck_40_n03417042_3228.JPEG
alexnet,1,504,NaN,truck,truck,bw,0504_cl_dnn_bw_truck_40_n03417042_153.JPEG
alexnet,1,505,NaN,truck,truck,bw,0505_cl_dnn_bw_truck_40_n03796401_3495.JPEG
alexnet,1,506,NaN,truck,truck,bw,0506_cl_dnn_bw_truck_40_n03417042_8912.JPEG
alexnet,1,507,NaN,truck,truck,bw,0507_cl_dnn_bw_truck_40_n04467665_27873.JPEG
alexnet,1,508,NaN,truck,truck,bw,0508_cl_dnn_bw_truck_40_n03417042_14753.JPEG
alexnet,1,509,NaN,truck,truck,bw,0509_cl_dnn_bw_truck_40_n04467665_4840.JPEG
alexnet,1,510,NaN,truck,truck,bw,0510_cl_dnn_bw_truck_40_n03796401_4309.JPEG
alexnet,1,511,NaN,truck,truck,bw,0511_cl_dnn_bw_truck_40_n04467665_32534.JPEG
alexnet,1,512,NaN,truck,truck,bw,0512_cl_dnn_bw_truck_40_n03796401_2551.JPEG
alexnet,1,513,NaN,truck,truck,bw,0513_cl_dnn_bw_truck_40_n03417042_6467.JPEG
alexnet,1,514,NaN,truck,truck,bw,0514_cl_dnn_bw_truck_40_n03417042_25224.JPEG
alexnet,1,515,NaN,truck,truck,bw,0515_cl_dnn_bw_truck_40_n03417042_9580.JPEG
alexnet,1,516,NaN,truck,truck,bw,0516_cl_dnn_bw_truck_40_n04467665_22731.JPEG
alexnet,1,517,NaN,truck,truck,bw,0517_cl_dnn_bw_truck_40_n03417042_6317.JPEG
alexnet,1,518,NaN,truck,truck,bw,0518_cl_dnn_bw_truck_40_n03417042_15058.JPEG
alexnet,1,519,NaN,truck,truck,bw,0519_cl_dnn_bw_truck_40_n04467665_3303.JPEG
alexnet,1,520,NaN,truck,truck,bw,0520_cl_dnn_bw_truck_40_n03417042_3104.JPEG
alexnet,1,521,NaN,car,car,bw,0521_cl_dnn_bw_car_40_n04285008_16557.JPEG
alexnet,1,522,NaN,car,car,bw,0522_cl_dnn_bw_car_40_n02814533_17832.JPEG
alexnet,1,523,NaN,car,car,bw,0523_cl_dnn_bw_car_40_n02814533_95054.JPEG
alexnet,1,524,NaN,car,car,bw,0524_cl_dnn_bw_car_40_n02814533_81600.JPEG
alexnet,1,525,NaN,car,car,bw,0525_cl_dnn_bw_car_40_n02814533_46997.JPEG
alexnet,1,526,NaN,car,car,bw,0526_cl_dnn_bw_car_40_n03100240_9683.JPEG
alexnet,1,527,NaN,truck,car,bw,0527_cl_dnn_bw_car_40_n04285008_14653.JPEG
alexnet,1,528,NaN,car,car,bw,0528_cl_dnn_bw_car_40_n03100240_12088.JPEG
alexnet,1,529,NaN,car,car,bw,0529_cl_dnn_bw_car_40_n03100240_10413.JPEG
alexnet,1,530,NaN,car,car,bw,0530_cl_dnn_bw_car_40_n03100240_2503.JPEG
alexnet,1,531,NaN,car,car,bw,0531_cl_dnn_bw_car_40_n03100240_2985.JPEG
alexnet,1,532,NaN,knife,car,bw,0532_cl_dnn_bw_car_40_n04285008_749.JPEG
alexnet,1,533,NaN,car,car,bw,0533_cl_dnn_bw_car_40_n02814533_4726.JPEG
alexnet,1,534,NaN,car,car,bw,0534_cl_dnn_bw_car_40_n02814533_6899.JPEG
alexnet,1,535,NaN,car,car,bw,0535_cl_dnn_bw_car_40_n04285008_12696.JPEG
alexnet,1,536,NaN,car,car,bw,0536_cl_dnn_bw_car_40_n02814533_6817.JPEG
alexnet,1,537,NaN,car,car,bw,0537_cl_dnn_bw_car_40_n02814533_80049.JPEG
alexnet,1,538,NaN,car,car,bw,0538_cl_dnn_bw_car_40_n03100240_7239.JPEG
alexnet,1,539,NaN,car,car,bw,0539_cl_dnn_bw_car_40_n02814533_312.JPEG
alexnet,1,540,NaN,car,car,bw,0540_cl_dnn_bw_car_40_n03100240_2138.JPEG
alexnet,1,541,NaN,car,car,bw,0541_cl_dnn_bw_car_40_n02814533_63116.JPEG
alexnet,1,542,NaN,car,car,bw,0542_cl_dnn_bw_car_40_n03100240_7206.JPEG
alexnet,1,543,NaN,car,car,bw,0543_cl_dnn_bw_car_40_n03100240_12560.JPEG
alexnet,1,544,NaN,truck,car,bw,0544_cl_dnn_bw_car_40_n03100240_7928.JPEG
alexnet,1,545,NaN,car,car,bw,0545_cl_dnn_bw_car_40_n03100240_12141.JPEG
alexnet,1,546,NaN,car,car,bw,0546_cl_dnn_bw_car_40_n04285008_7647.JPEG
alexnet,1,547,NaN,car,car,bw,0547_cl_dnn_bw_car_40_n03100240_18559.JPEG
alexnet,1,548,NaN,car,car,bw,0548_cl_dnn_bw_car_40_n03100240_15979.JPEG
alexnet,1,549,NaN,car,car,bw,0549_cl_dnn_bw_car_40_n02814533_58196.JPEG
alexnet,1,550,NaN,car,car,bw,0550_cl_dnn_bw_car_40_n02814533_68668.JPEG
alexnet,1,551,NaN,car,car,bw,0551_cl_dnn_bw_car_40_n02814533_9677.JPEG
alexnet,1,552,NaN,car,car,bw,0552_cl_dnn_bw_car_40_n02814533_7429.JPEG
alexnet,1,553,NaN,car,car,bw,0553_cl_dnn_bw_car_40_n02814533_1746.JPEG
alexnet,1,554,NaN,car,car,bw,0554_cl_dnn_bw_car_40_n02814533_38071.JPEG
alexnet,1,555,NaN,car,car,bw,0555_cl_dnn_bw_car_40_n02814533_18458.JPEG
alexnet,1,556,NaN,car,car,bw,0556_cl_dnn_bw_car_40_n02814533_4637.JPEG
alexnet,1,557,NaN,car,car,bw,0557_cl_dnn_bw_car_40_n02814533_87871.JPEG
alexnet,1,558,NaN,oven,car,bw,0558_cl_dnn_bw_car_40_n02814533_25877.JPEG
alexnet,1,559,NaN,car,car,bw,0559_cl_dnn_bw_car_40_n03100240_672.JPEG
alexnet,1,560,NaN,car,car,bw,0560_cl_dnn_bw_car_40_n04285008_11970.JPEG
alexnet,1,561,NaN,bird,bird,bw,0561_cl_dnn_bw_bird_40_n01824575_385.JPEG
alexnet,1,562,NaN,bird,bird,bw,0562_cl_dnn_bw_bird_40_n02027492_5843.JPEG
alexnet,1,563,NaN,bird,bird,bw,0563_cl_dnn_bw_bird_40_n01514859_129.JPEG
alexnet,1,564,NaN,bird,bird,bw,0564_cl_dnn_bw_bird_40_n01796340_2891.JPEG
alexnet,1,565,NaN,bird,bird,bw,0565_cl_dnn_bw_bird_40_n02013706_7840.JPEG
alexnet,1,566,NaN,bird,bird,bw,0566_cl_dnn_bw_bird_40_n02002556_10758.JPEG
alexnet,1,567,NaN,bird,bird,bw,0567_cl_dnn_bw_bird_40_n01855672_56715.JPEG
alexnet,1,568,NaN,bird,bird,bw,0568_cl_dnn_bw_bird_40_n02033041_3509.JPEG
alexnet,1,569,NaN,bird,bird,bw,0569_cl_dnn_bw_bird_40_n01592084_6850.JPEG
alexnet,1,570,NaN,bird,bird,bw,0570_cl_dnn_bw_bird_40_n02056570_1067.JPEG
alexnet,1,571,NaN,bird,bird,bw,0571_cl_dnn_bw_bird_40_n01582220_5491.JPEG
alexnet,1,572,NaN,bird,bird,bw,0572_cl_dnn_bw_bird_40_n02027492_409.JPEG
alexnet,1,573,NaN,dog,bird,bw,0573_cl_dnn_bw_bird_40_n01558993_19957.JPEG
alexnet,1,574,NaN,bird,bird,bw,0574_cl_dnn_bw_bird_40_n01833805_9081.JPEG
alexnet,1,575,NaN,bird,bird,bw,0575_cl_dnn_bw_bird_40_n01829413_5885.JPEG
alexnet,1,576,NaN,bird,bird,bw,0576_cl_dnn_bw_bird_40_n02009229_12455.JPEG
alexnet,1,577,NaN,bird,bird,bw,0577_cl_dnn_bw_bird_40_n01817953_5659.JPEG
alexnet,1,578,NaN,boat,bird,bw,0578_cl_dnn_bw_bird_40_n01616318_9463.JPEG
alexnet,1,579,NaN,bird,bird,bw,0579_cl_dnn_bw_bird_40_n01817953_718.JPEG
alexnet,1,580,NaN,bird,bird,bw,0580_cl_dnn_bw_bird_40_n01828970_8762.JPEG
alexnet,1,581,NaN,bird,bird,bw,0581_cl_dnn_bw_bird_40_n02007558_14594.JPEG
alexnet,1,582,NaN,keyboard,bird,bw,0582_cl_dnn_bw_bird_40_n01582220_11238.JPEG
alexnet,1,583,NaN,bird,bird,bw,0583_cl_dnn_bw_bird_40_n01532829_7402.JPEG
alexnet,1,584,NaN,bird,bird,bw,0584_cl_dnn_bw_bird_40_n02051845_8841.JPEG
alexnet,1,585,NaN,bird,bird,bw,0585_cl_dnn_bw_bird_40_n01601694_22111.JPEG
alexnet,1,586,NaN,dog,bird,bw,0586_cl_dnn_bw_bird_40_n01558993_2558.JPEG
alexnet,1,587,NaN,bird,bird,bw,0587_cl_dnn_bw_bird_40_n01530575_36540.JPEG
alexnet,1,588,NaN,bird,bird,bw,0588_cl_dnn_bw_bird_40_n01560419_6795.JPEG
alexnet,1,589,NaN,bird,bird,bw,0589_cl_dnn_bw_bird_40_n01843383_1473.JPEG
alexnet,1,590,NaN,bird,bird,bw,0590_cl_dnn_bw_bird_40_n02017213_1606.JPEG
alexnet,1,591,NaN,bird,bird,bw,0591_cl_dnn_bw_bird_40_n01514859_12174.JPEG
alexnet,1,592,NaN,bird,bird,bw,0592_cl_dnn_bw_bird_40_n02009912_6288.JPEG
alexnet,1,593,NaN,bird,bird,bw,0593_cl_dnn_bw_bird_40_n02028035_4053.JPEG
alexnet,1,594,NaN,bird,bird,bw,0594_cl_dnn_bw_bird_40_n02002724_3825.JPEG
alexnet,1,595,NaN,bird,bird,bw,0595_cl_dnn_bw_bird_40_n02017213_6756.JPEG
alexnet,1,596,NaN,bird,bird,bw,0596_cl_dnn_bw_bird_40_n01532829_2263.JPEG
alexnet,1,597,NaN,bird,bird,bw,0597_cl_dnn_bw_bird_40_n01817953_2257.JPEG
alexnet,1,598,NaN,bird,bird,bw,0598_cl_dnn_bw_bird_40_n02056570_70.JPEG
alexnet,1,599,NaN,bird,bird,bw,0599_cl_dnn_bw_bird_40_n01860187_3215.JPEG
alexnet,1,600,NaN,bird,bird,bw,0600_cl_dnn_bw_bird_40_n02002724_1011.JPEG
alexnet,1,601,NaN,dog,dog,bw,0601_cl_dnn_bw_dog_40_n02099601_634.JPEG
alexnet,1,602,NaN,dog,dog,bw,0602_cl_dnn_bw_dog_40_n02093859_1039.JPEG
alexnet,1,603,NaN,dog,dog,bw,0603_cl_dnn_bw_dog_40_n02108000_1716.JPEG
alexnet,1,604,NaN,dog,dog,bw,0604_cl_dnn_bw_dog_40_n02101388_22482.JPEG
alexnet,1,605,NaN,dog,dog,bw,0605_cl_dnn_bw_dog_40_n02088094_5353.JPEG
alexnet,1,606,NaN,dog,dog,bw,0606_cl_dnn_bw_dog_40_n02102040_2257.JPEG
alexnet,1,607,NaN,dog,dog,bw,0607_cl_dnn_bw_dog_40_n02087394_16610.JPEG
alexnet,1,608,NaN,dog,dog,bw,0608_cl_dnn_bw_dog_40_n02096437_6252.JPEG
alexnet,1,609,NaN,dog,dog,bw,0609_cl_dnn_bw_dog_40_n02097658_1682.JPEG
alexnet,1,610,NaN,dog,dog,bw,0610_cl_dnn_bw_dog_40_n02110185_10955.JPEG
alexnet,1,611,NaN,dog,dog,bw,0611_cl_dnn_bw_dog_40_n02102177_1998.JPEG
alexnet,1,612,NaN,dog,dog,bw,0612_cl_dnn_bw_dog_40_n02100735_10521.JPEG
alexnet,1,613,NaN,dog,dog,bw,0613_cl_dnn_bw_dog_40_n02113023_10100.JPEG
alexnet,1,614,NaN,dog,dog,bw,0614_cl_dnn_bw_dog_40_n02113624_3607.JPEG
alexnet,1,615,NaN,dog,dog,bw,0615_cl_dnn_bw_dog_40_n02112018_4644.JPEG
alexnet,1,616,NaN,bear,dog,bw,0616_cl_dnn_bw_dog_40_n02105162_3631.JPEG
alexnet,1,617,NaN,dog,dog,bw,0617_cl_dnn_bw_dog_40_n02106662_67635.JPEG
alexnet,1,618,NaN,dog,dog,bw,0618_cl_dnn_bw_dog_40_n02102480_5514.JPEG
alexnet,1,619,NaN,dog,dog,bw,0619_cl_dnn_bw_dog_40_n02093256_1375.JPEG
alexnet,1,620,NaN,dog,dog,bw,0620_cl_dnn_bw_dog_40_n02100236_10043.JPEG
alexnet,1,621,NaN,dog,dog,bw,0621_cl_dnn_bw_dog_40_n02090721_1252.JPEG
alexnet,1,622,NaN,dog,dog,bw,0622_cl_dnn_bw_dog_40_n02097298_809.JPEG
alexnet,1,623,NaN,dog,dog,bw,0623_cl_dnn_bw_dog_40_n02098286_4625.JPEG
alexnet,1,624,NaN,dog,dog,bw,0624_cl_dnn_bw_dog_40_n02106166_1684.JPEG
alexnet,1,625,NaN,dog,dog,bw,0625_cl_dnn_bw_dog_40_n02107142_61616.JPEG
alexnet,1,626,NaN,dog,dog,bw,0626_cl_dnn_bw_dog_40_n02111129_5647.JPEG
alexnet,1,627,NaN,dog,dog,bw,0627_cl_dnn_bw_dog_40_n02088094_4314.JPEG
alexnet,1,628,NaN,dog,dog,bw,0628_cl_dnn_bw_dog_40_n02085782_2537.JPEG
alexnet,1,629,NaN,dog,dog,bw,0629_cl_dnn_bw_dog_40_n02106550_1366.JPEG
alexnet,1,630,NaN,dog,dog,bw,0630_cl_dnn_bw_dog_40_n02091831_9789.JPEG
alexnet,1,631,NaN,dog,dog,bw,0631_cl_dnn_bw_dog_40_n02106550_11842.JPEG
alexnet,1,632,NaN,dog,dog,bw,0632_cl_dnn_bw_dog_40_n02089867_5022.JPEG
alexnet,1,633,NaN,cat,dog,bw,0633_cl_dnn_bw_dog_40_n02091134_7205.JPEG
alexnet,1,634,NaN,dog,dog,bw,0634_cl_dnn_bw_dog_40_n02102040_4779.JPEG
alexnet,1,635,NaN,dog,dog,bw,0635_cl_dnn_bw_dog_40_n02090379_5505.JPEG
alexnet,1,636,NaN,dog,dog,bw,0636_cl_dnn_bw_dog_40_n02101388_12060.JPEG
alexnet,1,637,NaN,dog,dog,bw,0637_cl_dnn_bw_dog_40_n02106662_21340.JPEG
alexnet,1,638,NaN,dog,dog,bw,0638_cl_dnn_bw_dog_40_n02110063_7911.JPEG
alexnet,1,639,NaN,dog,dog,bw,0639_cl_dnn_bw_dog_40_n02093647_2475.JPEG
alexnet,1,640,NaN,dog,dog,bw,0640_cl_dnn_bw_dog_40_n02101388_3308.JPEG
alexnet,1,641,NaN,oven,knife,cr,0641_cl_dnn_cr_knife_40_n03041632_36390.JPEG
alexnet,1,642,NaN,knife,knife,cr,0642_cl_dnn_cr_knife_40_n03041632_55140.JPEG
alexnet,1,643,NaN,knife,knife,cr,0643_cl_dnn_cr_knife_40_n03041632_44019.JPEG
alexnet,1,644,NaN,knife,knife,cr,0644_cl_dnn_cr_knife_40_n03041632_46914.JPEG
alexnet,1,645,NaN,knife,knife,cr,0645_cl_dnn_cr_knife_40_n03041632_6575.JPEG
alexnet,1,646,NaN,knife,knife,cr,0646_cl_dnn_cr_knife_40_n03041632_56454.JPEG
alexnet,1,647,NaN,knife,knife,cr,0647_cl_dnn_cr_knife_40_n03041632_7380.JPEG
alexnet,1,648,NaN,knife,knife,cr,0648_cl_dnn_cr_knife_40_n03041632_4318.JPEG
alexnet,1,649,NaN,knife,knife,cr,0649_cl_dnn_cr_knife_40_n03041632_52848.JPEG
alexnet,1,650,NaN,knife,knife,cr,0650_cl_dnn_cr_knife_40_n03041632_55953.JPEG
alexnet,1,651,NaN,knife,knife,cr,0651_cl_dnn_cr_knife_40_n03041632_45270.JPEG
alexnet,1,652,NaN,knife,knife,cr,0652_cl_dnn_cr_knife_40_n03041632_4037.JPEG
alexnet,1,653,NaN,knife,knife,cr,0653_cl_dnn_cr_knife_40_n03041632_34505.JPEG
alexnet,1,654,NaN,knife,knife,cr,0654_cl_dnn_cr_knife_40_n03041632_102828.JPEG
alexnet,1,655,NaN,knife,knife,cr,0655_cl_dnn_cr_knife_40_n03041632_32337.JPEG
alexnet,1,656,NaN,knife,knife,cr,0656_cl_dnn_cr_knife_40_n03041632_29337.JPEG
alexnet,1,657,NaN,keyboard,knife,cr,0657_cl_dnn_cr_knife_40_n03041632_13509.JPEG
alexnet,1,658,NaN,knife,knife,cr,0658_cl_dnn_cr_knife_40_n03041632_48675.JPEG
alexnet,1,659,NaN,knife,knife,cr,0659_cl_dnn_cr_knife_40_n03041632_3926.JPEG
alexnet,1,660,NaN,knife,knife,cr,0660_cl_dnn_cr_knife_40_n03041632_17338.JPEG
alexnet,1,661,NaN,keyboard,knife,cr,0661_cl_dnn_cr_knife_40_n03041632_49513.JPEG
alexnet,1,662,NaN,knife,knife,cr,0662_cl_dnn_cr_knife_40_n03041632_5911.JPEG
alexnet,1,663,NaN,knife,knife,cr,0663_cl_dnn_cr_knife_40_n03041632_38535.JPEG
alexnet,1,664,NaN,knife,knife,cr,0664_cl_dnn_cr_knife_40_n03041632_2644.JPEG
alexnet,1,665,NaN,knife,knife,cr,0665_cl_dnn_cr_knife_40_n03041632_24326.JPEG
alexnet,1,666,NaN,knife,knife,cr,0666_cl_dnn_cr_knife_40_n03041632_11932.JPEG
alexnet,1,667,NaN,knife,knife,cr,0667_cl_dnn_cr_knife_40_n03041632_29940.JPEG
alexnet,1,668,NaN,knife,knife,cr,0668_cl_dnn_cr_knife_40_n03041632_3063.JPEG
alexnet,1,669,NaN,knife,knife,cr,0669_cl_dnn_cr_knife_40_n03041632_43436.JPEG
alexnet,1,670,NaN,knife,knife,cr,0670_cl_dnn_cr_knife_40_n03041632_20832.JPEG
alexnet,1,671,NaN,dog,knife,cr,0671_cl_dnn_cr_knife_40_n03041632_8321.JPEG
alexnet,1,672,NaN,knife,knife,cr,0672_cl_dnn_cr_knife_40_n03041632_47703.JPEG
alexnet,1,673,NaN,knife,knife,cr,0673_cl_dnn_cr_knife_40_n03041632_32785.JPEG
alexnet,1,674,NaN,knife,knife,cr,0674_cl_dnn_cr_knife_40_n03041632_49163.JPEG
alexnet,1,675,NaN,knife,knife,cr,0675_cl_dnn_cr_knife_40_n03041632_36806.JPEG
alexnet,1,676,NaN,knife,knife,cr,0676_cl_dnn_cr_knife_40_n03041632_40450.JPEG
alexnet,1,677,NaN,knife,knife,cr,0677_cl_dnn_cr_knife_40_n03041632_5102.JPEG
alexnet,1,678,NaN,boat,knife,cr,0678_cl_dnn_cr_knife_40_n03041632_45312.JPEG
alexnet,1,679,NaN,chair,knife,cr,0679_cl_dnn_cr_knife_40_n03041632_51766.JPEG
alexnet,1,680,NaN,knife,knife,cr,0680_cl_dnn_cr_knife_40_n03041632_29038.JPEG
alexnet,1,681,NaN,keyboard,keyboard,cr,0681_cl_dnn_cr_keyboard_40_n03085013_14810.JPEG
alexnet,1,682,NaN,keyboard,keyboard,cr,0682_cl_dnn_cr_keyboard_40_n03085013_25875.JPEG
alexnet,1,683,NaN,keyboard,keyboard,cr,0683_cl_dnn_cr_keyboard_40_n04505470_1988.JPEG
alexnet,1,684,NaN,keyboard,keyboard,cr,0684_cl_dnn_cr_keyboard_40_n03085013_19203.JPEG
alexnet,1,685,NaN,keyboard,keyboard,cr,0685_cl_dnn_cr_keyboard_40_n03085013_19254.JPEG
alexnet,1,686,NaN,keyboard,keyboard,cr,0686_cl_dnn_cr_keyboard_40_n03085013_23904.JPEG
alexnet,1,687,NaN,keyboard,keyboard,cr,0687_cl_dnn_cr_keyboard_40_n03085013_24392.JPEG
alexnet,1,688,NaN,keyboard,keyboard,cr,0688_cl_dnn_cr_keyboard_40_n03085013_12482.JPEG
alexnet,1,689,NaN,keyboard,keyboard,cr,0689_cl_dnn_cr_keyboard_40_n03085013_18668.JPEG
alexnet,1,690,NaN,keyboard,keyboard,cr,0690_cl_dnn_cr_keyboard_40_n03085013_21277.JPEG
alexnet,1,691,NaN,keyboard,keyboard,cr,0691_cl_dnn_cr_keyboard_40_n03085013_23277.JPEG
alexnet,1,692,NaN,keyboard,keyboard,cr,0692_cl_dnn_cr_keyboard_40_n04505470_763.JPEG
alexnet,1,693,NaN,keyboard,keyboard,cr,0693_cl_dnn_cr_keyboard_40_n03085013_24464.JPEG
alexnet,1,694,NaN,keyboard,keyboard,cr,0694_cl_dnn_cr_keyboard_40_n03085013_18851.JPEG
alexnet,1,695,NaN,keyboard,keyboard,cr,0695_cl_dnn_cr_keyboard_40_n03085013_23535.JPEG
alexnet,1,696,NaN,keyboard,keyboard,cr,0696_cl_dnn_cr_keyboard_40_n04505470_756.JPEG
alexnet,1,697,NaN,keyboard,keyboard,cr,0697_cl_dnn_cr_keyboard_40_n03085013_23800.JPEG
alexnet,1,698,NaN,keyboard,keyboard,cr,0698_cl_dnn_cr_keyboard_40_n03085013_23008.JPEG
alexnet,1,699,NaN,keyboard,keyboard,cr,0699_cl_dnn_cr_keyboard_40_n03085013_6424.JPEG
alexnet,1,700,NaN,keyboard,keyboard,cr,0700_cl_dnn_cr_keyboard_40_n04505470_1236.JPEG
alexnet,1,701,NaN,keyboard,keyboard,cr,0701_cl_dnn_cr_keyboard_40_n03085013_5542.JPEG
alexnet,1,702,NaN,keyboard,keyboard,cr,0702_cl_dnn_cr_keyboard_40_n04505470_4016.JPEG
alexnet,1,703,NaN,keyboard,keyboard,cr,0703_cl_dnn_cr_keyboard_40_n03085013_18779.JPEG
alexnet,1,704,NaN,keyboard,keyboard,cr,0704_cl_dnn_cr_keyboard_40_n04505470_1529.JPEG
alexnet,1,705,NaN,keyboard,keyboard,cr,0705_cl_dnn_cr_keyboard_40_n03085013_19054.JPEG
alexnet,1,706,NaN,keyboard,keyboard,cr,0706_cl_dnn_cr_keyboard_40_n04505470_3391.JPEG
alexnet,1,707,NaN,keyboard,keyboard,cr,0707_cl_dnn_cr_keyboard_40_n03085013_20923.JPEG
alexnet,1,708,NaN,keyboard,keyboard,cr,0708_cl_dnn_cr_keyboard_40_n03085013_23683.JPEG
alexnet,1,709,NaN,keyboard,keyboard,cr,0709_cl_dnn_cr_keyboard_40_n04505470_8749.JPEG
alexnet,1,710,NaN,keyboard,keyboard,cr,0710_cl_dnn_cr_keyboard_40_n03085013_19096.JPEG
alexnet,1,711,NaN,keyboard,keyboard,cr,0711_cl_dnn_cr_keyboard_40_n03085013_22837.JPEG
alexnet,1,712,NaN,keyboard,keyboard,cr,0712_cl_dnn_cr_keyboard_40_n03085013_3007.JPEG
alexnet,1,713,NaN,keyboard,keyboard,cr,0713_cl_dnn_cr_keyboard_40_n04505470_286.JPEG
alexnet,1,714,NaN,keyboard,keyboard,cr,0714_cl_dnn_cr_keyboard_40_n04505470_2907.JPEG
alexnet,1,715,NaN,keyboard,keyboard,cr,0715_cl_dnn_cr_keyboard_40_n04505470_1648.JPEG
alexnet,1,716,NaN,keyboard,keyboard,cr,0716_cl_dnn_cr_keyboard_40_n03085013_22438.JPEG
alexnet,1,717,NaN,keyboard,keyboard,cr,0717_cl_dnn_cr_keyboard_40_n03085013_23943.JPEG
alexnet,1,718,NaN,keyboard,keyboard,cr,0718_cl_dnn_cr_keyboard_40_n03085013_23086.JPEG
alexnet,1,719,NaN,keyboard,keyboard,cr,0719_cl_dnn_cr_keyboard_40_n03085013_10984.JPEG
alexnet,1,720,NaN,keyboard,keyboard,cr,0720_cl_dnn_cr_keyboard_40_n03085013_18861.JPEG
alexnet,1,721,NaN,elephant,elephant,cr,0721_cl_dnn_cr_elephant_40_n02504013_4977.JPEG
alexnet,1,722,NaN,elephant,elephant,cr,0722_cl_dnn_cr_elephant_40_n02504013_565.JPEG
alexnet,1,723,NaN,elephant,elephant,cr,0723_cl_dnn_cr_elephant_40_n02504458_6079.JPEG
alexnet,1,724,NaN,elephant,elephant,cr,0724_cl_dnn_cr_elephant_40_n02504458_4908.JPEG
alexnet,1,725,NaN,elephant,elephant,cr,0725_cl_dnn_cr_elephant_40_n02504458_6792.JPEG
alexnet,1,726,NaN,elephant,elephant,cr,0726_cl_dnn_cr_elephant_40_n02504013_12586.JPEG
alexnet,1,727,NaN,elephant,elephant,cr,0727_cl_dnn_cr_elephant_40_n02504013_6751.JPEG
alexnet,1,728,NaN,elephant,elephant,cr,0728_cl_dnn_cr_elephant_40_n02504013_637.JPEG
alexnet,1,729,NaN,elephant,elephant,cr,0729_cl_dnn_cr_elephant_40_n02504013_6552.JPEG
alexnet,1,730,NaN,bear,elephant,cr,0730_cl_dnn_cr_elephant_40_n02504458_6714.JPEG
alexnet,1,731,NaN,elephant,elephant,cr,0731_cl_dnn_cr_elephant_40_n02504458_2511.JPEG
alexnet,1,732,NaN,elephant,elephant,cr,0732_cl_dnn_cr_elephant_40_n02504458_7950.JPEG
alexnet,1,733,NaN,elephant,elephant,cr,0733_cl_dnn_cr_elephant_40_n02504013_4145.JPEG
alexnet,1,734,NaN,elephant,elephant,cr,0734_cl_dnn_cr_elephant_40_n02504458_291.JPEG
alexnet,1,735,NaN,elephant,elephant,cr,0735_cl_dnn_cr_elephant_40_n02504458_10955.JPEG
alexnet,1,736,NaN,elephant,elephant,cr,0736_cl_dnn_cr_elephant_40_n02504013_7135.JPEG
alexnet,1,737,NaN,elephant,elephant,cr,0737_cl_dnn_cr_elephant_40_n02504458_2919.JPEG
alexnet,1,738,NaN,elephant,elephant,cr,0738_cl_dnn_cr_elephant_40_n02504458_9957.JPEG
alexnet,1,739,NaN,elephant,elephant,cr,0739_cl_dnn_cr_elephant_40_n02504458_2662.JPEG
alexnet,1,740,NaN,elephant,elephant,cr,0740_cl_dnn_cr_elephant_40_n02504458_6841.JPEG
alexnet,1,741,NaN,elephant,elephant,cr,0741_cl_dnn_cr_elephant_40_n02504458_8273.JPEG
alexnet,1,742,NaN,elephant,elephant,cr,0742_cl_dnn_cr_elephant_40_n02504013_7217.JPEG
alexnet,1,743,NaN,elephant,elephant,cr,0743_cl_dnn_cr_elephant_40_n02504013_4407.JPEG
alexnet,1,744,NaN,bear,elephant,cr,0744_cl_dnn_cr_elephant_40_n02504458_847.JPEG
alexnet,1,745,NaN,elephant,elephant,cr,0745_cl_dnn_cr_elephant_40_n02504458_5245.JPEG
alexnet,1,746,NaN,elephant,elephant,cr,0746_cl_dnn_cr_elephant_40_n02504013_2163.JPEG
alexnet,1,747,NaN,elephant,elephant,cr,0747_cl_dnn_cr_elephant_40_n02504458_14308.JPEG
alexnet,1,748,NaN,elephant,elephant,cr,0748_cl_dnn_cr_elephant_40_n02504013_8977.JPEG
alexnet,1,749,NaN,elephant,elephant,cr,0749_cl_dnn_cr_elephant_40_n02504458_6878.JPEG
alexnet,1,750,NaN,elephant,elephant,cr,0750_cl_dnn_cr_elephant_40_n02504458_235.JPEG
alexnet,1,751,NaN,elephant,elephant,cr,0751_cl_dnn_cr_elephant_40_n02504458_929.JPEG
alexnet,1,752,NaN,elephant,elephant,cr,0752_cl_dnn_cr_elephant_40_n02504013_978.JPEG
alexnet,1,753,NaN,elephant,elephant,cr,0753_cl_dnn_cr_elephant_40_n02504458_11618.JPEG
alexnet,1,754,NaN,elephant,elephant,cr,0754_cl_dnn_cr_elephant_40_n02504458_900.JPEG
alexnet,1,755,NaN,elephant,elephant,cr,0755_cl_dnn_cr_elephant_40_n02504458_4806.JPEG
alexnet,1,756,NaN,elephant,elephant,cr,0756_cl_dnn_cr_elephant_40_n02504013_7518.JPEG
alexnet,1,757,NaN,elephant,elephant,cr,0757_cl_dnn_cr_elephant_40_n02504013_27.JPEG
alexnet,1,758,NaN,elephant,elephant,cr,0758_cl_dnn_cr_elephant_40_n02504458_7812.JPEG
alexnet,1,759,NaN,elephant,elephant,cr,0759_cl_dnn_cr_elephant_40_n02504458_6713.JPEG
alexnet,1,760,NaN,elephant,elephant,cr,0760_cl_dnn_cr_elephant_40_n02504013_11713.JPEG
alexnet,1,761,NaN,bicycle,bicycle,cr,0761_cl_dnn_cr_bicycle_40_n03792782_378.JPEG
alexnet,1,762,NaN,bicycle,bicycle,cr,0762_cl_dnn_cr_bicycle_40_n03792782_5207.JPEG
alexnet,1,763,NaN,bicycle,bicycle,cr,0763_cl_dnn_cr_bicycle_40_n03792782_19925.JPEG
alexnet,1,764,NaN,bicycle,bicycle,cr,0764_cl_dnn_cr_bicycle_40_n03792782_5284.JPEG
alexnet,1,765,NaN,bicycle,bicycle,cr,0765_cl_dnn_cr_bicycle_40_n03792782_14199.JPEG
alexnet,1,766,NaN,bicycle,bicycle,cr,0766_cl_dnn_cr_bicycle_40_n03792782_51414.JPEG
alexnet,1,767,NaN,bicycle,bicycle,cr,0767_cl_dnn_cr_bicycle_40_n02835271_913.JPEG
alexnet,1,768,NaN,bicycle,bicycle,cr,0768_cl_dnn_cr_bicycle_40_n03792782_3834.JPEG
alexnet,1,769,NaN,bicycle,bicycle,cr,0769_cl_dnn_cr_bicycle_40_n03792782_1782.JPEG
alexnet,1,770,NaN,bicycle,bicycle,cr,0770_cl_dnn_cr_bicycle_40_n02835271_10424.JPEG
alexnet,1,771,NaN,bicycle,bicycle,cr,0771_cl_dnn_cr_bicycle_40_n03792782_8357.JPEG
alexnet,1,772,NaN,bicycle,bicycle,cr,0772_cl_dnn_cr_bicycle_40_n02835271_1488.JPEG
alexnet,1,773,NaN,bicycle,bicycle,cr,0773_cl_dnn_cr_bicycle_40_n03792782_14907.JPEG
alexnet,1,774,NaN,bicycle,bicycle,cr,0774_cl_dnn_cr_bicycle_40_n03792782_4277.JPEG
alexnet,1,775,NaN,clock,bicycle,cr,0775_cl_dnn_cr_bicycle_40_n02835271_7828.JPEG
alexnet,1,776,NaN,bicycle,bicycle,cr,0776_cl_dnn_cr_bicycle_40_n02835271_5602.JPEG
alexnet,1,777,NaN,bicycle,bicycle,cr,0777_cl_dnn_cr_bicycle_40_n03792782_70708.JPEG
alexnet,1,778,NaN,bicycle,bicycle,cr,0778_cl_dnn_cr_bicycle_40_n03792782_19866.JPEG
alexnet,1,779,NaN,bicycle,bicycle,cr,0779_cl_dnn_cr_bicycle_40_n02835271_3773.JPEG
alexnet,1,780,NaN,bicycle,bicycle,cr,0780_cl_dnn_cr_bicycle_40_n03792782_1609.JPEG
alexnet,1,781,NaN,bicycle,bicycle,cr,0781_cl_dnn_cr_bicycle_40_n03792782_10223.JPEG
alexnet,1,782,NaN,bicycle,bicycle,cr,0782_cl_dnn_cr_bicycle_40_n03792782_4046.JPEG
alexnet,1,783,NaN,bicycle,bicycle,cr,0783_cl_dnn_cr_bicycle_40_n02835271_7051.JPEG
alexnet,1,784,NaN,bicycle,bicycle,cr,0784_cl_dnn_cr_bicycle_40_n02835271_5152.JPEG
alexnet,1,785,NaN,bicycle,bicycle,cr,0785_cl_dnn_cr_bicycle_40_n02835271_7596.JPEG
alexnet,1,786,NaN,bicycle,bicycle,cr,0786_cl_dnn_cr_bicycle_40_n02835271_14670.JPEG
alexnet,1,787,NaN,bicycle,bicycle,cr,0787_cl_dnn_cr_bicycle_40_n02835271_7863.JPEG
alexnet,1,788,NaN,bicycle,bicycle,cr,0788_cl_dnn_cr_bicycle_40_n02835271_6903.JPEG
alexnet,1,789,NaN,bicycle,bicycle,cr,0789_cl_dnn_cr_bicycle_40_n03792782_4682.JPEG
alexnet,1,790,NaN,bicycle,bicycle,cr,0790_cl_dnn_cr_bicycle_40_n03792782_18424.JPEG
alexnet,1,791,NaN,bicycle,bicycle,cr,0791_cl_dnn_cr_bicycle_40_n03792782_15757.JPEG
alexnet,1,792,NaN,bicycle,bicycle,cr,0792_cl_dnn_cr_bicycle_40_n03792782_10248.JPEG
alexnet,1,793,NaN,bicycle,bicycle,cr,0793_cl_dnn_cr_bicycle_40_n02835271_2015.JPEG
alexnet,1,794,NaN,bicycle,bicycle,cr,0794_cl_dnn_cr_bicycle_40_n02835271_12818.JPEG
alexnet,1,795,NaN,bicycle,bicycle,cr,0795_cl_dnn_cr_bicycle_40_n03792782_7576.JPEG
alexnet,1,796,NaN,bicycle,bicycle,cr,0796_cl_dnn_cr_bicycle_40_n02835271_7232.JPEG
alexnet,1,797,NaN,bicycle,bicycle,cr,0797_cl_dnn_cr_bicycle_40_n03792782_66048.JPEG
alexnet,1,798,NaN,bicycle,bicycle,cr,0798_cl_dnn_cr_bicycle_40_n03792782_3578.JPEG
alexnet,1,799,NaN,bicycle,bicycle,cr,0799_cl_dnn_cr_bicycle_40_n03792782_12704.JPEG
alexnet,1,800,NaN,bicycle,bicycle,cr,0800_cl_dnn_cr_bicycle_40_n03792782_49648.JPEG
alexnet,1,801,NaN,airplane,airplane,cr,0801_cl_dnn_cr_airplane_40_n02690373_10404.JPEG
alexnet,1,802,NaN,airplane,airplane,cr,0802_cl_dnn_cr_airplane_40_n02690373_379.JPEG
alexnet,1,803,NaN,airplane,airplane,cr,0803_cl_dnn_cr_airplane_40_n02690373_6663.JPEG
alexnet,1,804,NaN,airplane,airplane,cr,0804_cl_dnn_cr_airplane_40_n02690373_5909.JPEG
alexnet,1,805,NaN,airplane,airplane,cr,0805_cl_dnn_cr_airplane_40_n02690373_4895.JPEG
alexnet,1,806,NaN,airplane,airplane,cr,0806_cl_dnn_cr_airplane_40_n02690373_9618.JPEG
alexnet,1,807,NaN,airplane,airplane,cr,0807_cl_dnn_cr_airplane_40_n02690373_3698.JPEG
alexnet,1,808,NaN,airplane,airplane,cr,0808_cl_dnn_cr_airplane_40_n02690373_4753.JPEG
alexnet,1,809,NaN,airplane,airplane,cr,0809_cl_dnn_cr_airplane_40_n02690373_11908.JPEG
alexnet,1,810,NaN,airplane,airplane,cr,0810_cl_dnn_cr_airplane_40_n02690373_19134.JPEG
alexnet,1,811,NaN,airplane,airplane,cr,0811_cl_dnn_cr_airplane_40_n02690373_3956.JPEG
alexnet,1,812,NaN,airplane,airplane,cr,0812_cl_dnn_cr_airplane_40_n02690373_3096.JPEG
alexnet,1,813,NaN,airplane,airplane,cr,0813_cl_dnn_cr_airplane_40_n02690373_1983.JPEG
alexnet,1,814,NaN,airplane,airplane,cr,0814_cl_dnn_cr_airplane_40_n02690373_633.JPEG
alexnet,1,815,NaN,airplane,airplane,cr,0815_cl_dnn_cr_airplane_40_n02690373_2800.JPEG
alexnet,1,816,NaN,airplane,airplane,cr,0816_cl_dnn_cr_airplane_40_n02690373_6720.JPEG
alexnet,1,817,NaN,airplane,airplane,cr,0817_cl_dnn_cr_airplane_40_n02690373_1386.JPEG
alexnet,1,818,NaN,airplane,airplane,cr,0818_cl_dnn_cr_airplane_40_n02690373_5838.JPEG
alexnet,1,819,NaN,airplane,airplane,cr,0819_cl_dnn_cr_airplane_40_n02690373_18693.JPEG
alexnet,1,820,NaN,airplane,airplane,cr,0820_cl_dnn_cr_airplane_40_n02690373_6459.JPEG
alexnet,1,821,NaN,airplane,airplane,cr,0821_cl_dnn_cr_airplane_40_n02690373_8996.JPEG
alexnet,1,822,NaN,airplane,airplane,cr,0822_cl_dnn_cr_airplane_40_n02690373_1706.JPEG
alexnet,1,823,NaN,airplane,airplane,cr,0823_cl_dnn_cr_airplane_40_n02690373_6116.JPEG
alexnet,1,824,NaN,airplane,airplane,cr,0824_cl_dnn_cr_airplane_40_n02690373_9619.JPEG
alexnet,1,825,NaN,truck,airplane,cr,0825_cl_dnn_cr_airplane_40_n02690373_4136.JPEG
alexnet,1,826,NaN,airplane,airplane,cr,0826_cl_dnn_cr_airplane_40_n02690373_4565.JPEG
alexnet,1,827,NaN,airplane,airplane,cr,0827_cl_dnn_cr_airplane_40_n02690373_2068.JPEG
alexnet,1,828,NaN,airplane,airplane,cr,0828_cl_dnn_cr_airplane_40_n02690373_5624.JPEG
alexnet,1,829,NaN,airplane,airplane,cr,0829_cl_dnn_cr_airplane_40_n02690373_8214.JPEG
alexnet,1,830,NaN,airplane,airplane,cr,0830_cl_dnn_cr_airplane_40_n02690373_9001.JPEG
alexnet,1,831,NaN,airplane,airplane,cr,0831_cl_dnn_cr_airplane_40_n02690373_1416.JPEG
alexnet,1,832,NaN,airplane,airplane,cr,0832_cl_dnn_cr_airplane_40_n02690373_3216.JPEG
alexnet,1,833,NaN,airplane,airplane,cr,0833_cl_dnn_cr_airplane_40_n02690373_16250.JPEG
alexnet,1,834,NaN,airplane,airplane,cr,0834_cl_dnn_cr_airplane_40_n02690373_1206.JPEG
alexnet,1,835,NaN,airplane,airplane,cr,0835_cl_dnn_cr_airplane_40_n02690373_5597.JPEG
alexnet,1,836,NaN,airplane,airplane,cr,0836_cl_dnn_cr_airplane_40_n02690373_12505.JPEG
alexnet,1,837,NaN,airplane,airplane,cr,0837_cl_dnn_cr_airplane_40_n02690373_3736.JPEG
alexnet,1,838,NaN,airplane,airplane,cr,0838_cl_dnn_cr_airplane_40_n02690373_3912.JPEG
alexnet,1,839,NaN,airplane,airplane,cr,0839_cl_dnn_cr_airplane_40_n02690373_2580.JPEG
alexnet,1,840,NaN,airplane,airplane,cr,0840_cl_dnn_cr_airplane_40_n02690373_1426.JPEG
alexnet,1,841,NaN,bottle,clock,cr,0841_cl_dnn_cr_clock_40_n02708093_1295.JPEG
alexnet,1,842,NaN,clock,clock,cr,0842_cl_dnn_cr_clock_40_n03196217_6083.JPEG
alexnet,1,843,NaN,clock,clock,cr,0843_cl_dnn_cr_clock_40_n03196217_12566.JPEG
alexnet,1,844,NaN,clock,clock,cr,0844_cl_dnn_cr_clock_40_n04548280_1878.JPEG
alexnet,1,845,NaN,clock,clock,cr,0845_cl_dnn_cr_clock_40_n02708093_3674.JPEG
alexnet,1,846,NaN,clock,clock,cr,0846_cl_dnn_cr_clock_40_n03196217_523.JPEG
alexnet,1,847,NaN,clock,clock,cr,0847_cl_dnn_cr_clock_40_n02708093_1267.JPEG
alexnet,1,848,NaN,clock,clock,cr,0848_cl_dnn_cr_clock_40_n04548280_4405.JPEG
alexnet,1,849,NaN,dog,clock,cr,0849_cl_dnn_cr_clock_40_n04548280_8717.JPEG
alexnet,1,850,NaN,clock,clock,cr,0850_cl_dnn_cr_clock_40_n02708093_6664.JPEG
alexnet,1,851,NaN,clock,clock,cr,0851_cl_dnn_cr_clock_40_n03196217_7012.JPEG
alexnet,1,852,NaN,clock,clock,cr,0852_cl_dnn_cr_clock_40_n04548280_4560.JPEG
alexnet,1,853,NaN,clock,clock,cr,0853_cl_dnn_cr_clock_40_n04548280_5295.JPEG
alexnet,1,854,NaN,clock,clock,cr,0854_cl_dnn_cr_clock_40_n04548280_1298.JPEG
alexnet,1,855,NaN,clock,clock,cr,0855_cl_dnn_cr_clock_40_n03196217_958.JPEG
alexnet,1,856,NaN,clock,clock,cr,0856_cl_dnn_cr_clock_40_n03196217_2814.JPEG
alexnet,1,857,NaN,clock,clock,cr,0857_cl_dnn_cr_clock_40_n03196217_3361.JPEG
alexnet,1,858,NaN,clock,clock,cr,0858_cl_dnn_cr_clock_40_n03196217_8830.JPEG
alexnet,1,859,NaN,clock,clock,cr,0859_cl_dnn_cr_clock_40_n04548280_8296.JPEG
alexnet,1,860,NaN,clock,clock,cr,0860_cl_dnn_cr_clock_40_n02708093_3641.JPEG
alexnet,1,861,NaN,clock,clock,cr,0861_cl_dnn_cr_clock_40_n02708093_6381.JPEG
alexnet,1,862,NaN,clock,clock,cr,0862_cl_dnn_cr_clock_40_n04548280_2946.JPEG
alexnet,1,863,NaN,clock,clock,cr,0863_cl_dnn_cr_clock_40_n04548280_8841.JPEG
alexnet,1,864,NaN,clock,clock,cr,0864_cl_dnn_cr_clock_40_n03196217_1804.JPEG
alexnet,1,865,NaN,clock,clock,cr,0865_cl_dnn_cr_clock_40_n03196217_3868.JPEG
alexnet,1,866,NaN,clock,clock,cr,0866_cl_dnn_cr_clock_40_n04548280_2111.JPEG
alexnet,1,867,NaN,clock,clock,cr,0867_cl_dnn_cr_clock_40_n03196217_5409.JPEG
alexnet,1,868,NaN,clock,clock,cr,0868_cl_dnn_cr_clock_40_n03196217_2530.JPEG
alexnet,1,869,NaN,clock,clock,cr,0869_cl_dnn_cr_clock_40_n03196217_1275.JPEG
alexnet,1,870,NaN,clock,clock,cr,0870_cl_dnn_cr_clock_40_n03196217_845.JPEG
alexnet,1,871,NaN,clock,clock,cr,0871_cl_dnn_cr_clock_40_n03196217_1473.JPEG
alexnet,1,872,NaN,keyboard,clock,cr,0872_cl_dnn_cr_clock_40_n04548280_465.JPEG
alexnet,1,873,NaN,clock,clock,cr,0873_cl_dnn_cr_clock_40_n04548280_1325.JPEG
alexnet,1,874,NaN,clock,clock,cr,0874_cl_dnn_cr_clock_40_n04548280_715.JPEG
alexnet,1,875,NaN,clock,clock,cr,0875_cl_dnn_cr_clock_40_n02708093_810.JPEG
alexnet,1,876,NaN,clock,clock,cr,0876_cl_dnn_cr_clock_40_n02708093_563.JPEG
alexnet,1,877,NaN,clock,clock,cr,0877_cl_dnn_cr_clock_40_n02708093_1384.JPEG
alexnet,1,878,NaN,clock,clock,cr,0878_cl_dnn_cr_clock_40_n02708093_2717.JPEG
alexnet,1,879,NaN,clock,clock,cr,0879_cl_dnn_cr_clock_40_n04548280_132.JPEG
alexnet,1,880,NaN,clock,clock,cr,0880_cl_dnn_cr_clock_40_n04548280_2441.JPEG
alexnet,1,881,NaN,oven,oven,cr,0881_cl_dnn_cr_oven_40_n04111531_5077.JPEG
alexnet,1,882,NaN,oven,oven,cr,0882_cl_dnn_cr_oven_40_n04111531_4963.JPEG
alexnet,1,883,NaN,oven,oven,cr,0883_cl_dnn_cr_oven_40_n04111531_8309.JPEG
alexnet,1,884,NaN,oven,oven,cr,0884_cl_dnn_cr_oven_40_n04111531_7283.JPEG
alexnet,1,885,NaN,oven,oven,cr,0885_cl_dnn_cr_oven_40_n04111531_22403.JPEG
alexnet,1,886,NaN,dog,oven,cr,0886_cl_dnn_cr_oven_40_n04111531_9026.JPEG
alexnet,1,887,NaN,oven,oven,cr,0887_cl_dnn_cr_oven_40_n04111531_3973.JPEG
alexnet,1,888,NaN,oven,oven,cr,0888_cl_dnn_cr_oven_40_n04111531_2051.JPEG
alexnet,1,889,NaN,oven,oven,cr,0889_cl_dnn_cr_oven_40_n04111531_6955.JPEG
alexnet,1,890,NaN,oven,oven,cr,0890_cl_dnn_cr_oven_40_n04111531_5950.JPEG
alexnet,1,891,NaN,oven,oven,cr,0891_cl_dnn_cr_oven_40_n04111531_7717.JPEG
alexnet,1,892,NaN,oven,oven,cr,0892_cl_dnn_cr_oven_40_n04111531_22886.JPEG
alexnet,1,893,NaN,oven,oven,cr,0893_cl_dnn_cr_oven_40_n04111531_2331.JPEG
alexnet,1,894,NaN,oven,oven,cr,0894_cl_dnn_cr_oven_40_n04111531_17006.JPEG
alexnet,1,895,NaN,oven,oven,cr,0895_cl_dnn_cr_oven_40_n04111531_10681.JPEG
alexnet,1,896,NaN,bottle,oven,cr,0896_cl_dnn_cr_oven_40_n04111531_10537.JPEG
alexnet,1,897,NaN,oven,oven,cr,0897_cl_dnn_cr_oven_40_n04111531_6933.JPEG
alexnet,1,898,NaN,oven,oven,cr,0898_cl_dnn_cr_oven_40_n04111531_9322.JPEG
alexnet,1,899,NaN,oven,oven,cr,0899_cl_dnn_cr_oven_40_n04111531_22493.JPEG
alexnet,1,900,NaN,chair,oven,cr,0900_cl_dnn_cr_oven_40_n04111531_5582.JPEG
alexnet,1,901,NaN,oven,oven,cr,0901_cl_dnn_cr_oven_40_n04111531_3905.JPEG
alexnet,1,902,NaN,oven,oven,cr,0902_cl_dnn_cr_oven_40_n04111531_14753.JPEG
alexnet,1,903,NaN,oven,oven,cr,0903_cl_dnn_cr_oven_40_n04111531_8531.JPEG
alexnet,1,904,NaN,oven,oven,cr,0904_cl_dnn_cr_oven_40_n04111531_8238.JPEG
alexnet,1,905,NaN,oven,oven,cr,0905_cl_dnn_cr_oven_40_n04111531_2670.JPEG
alexnet,1,906,NaN,oven,oven,cr,0906_cl_dnn_cr_oven_40_n04111531_14095.JPEG
alexnet,1,907,NaN,oven,oven,cr,0907_cl_dnn_cr_oven_40_n04111531_5279.JPEG
alexnet,1,908,NaN,oven,oven,cr,0908_cl_dnn_cr_oven_40_n04111531_14690.JPEG
alexnet,1,909,NaN,oven,oven,cr,0909_cl_dnn_cr_oven_40_n04111531_5965.JPEG
alexnet,1,910,NaN,oven,oven,cr,0910_cl_dnn_cr_oven_40_n04111531_6993.JPEG
alexnet,1,911,NaN,oven,oven,cr,0911_cl_dnn_cr_oven_40_n04111531_2943.JPEG
alexnet,1,912,NaN,oven,oven,cr,0912_cl_dnn_cr_oven_40_n04111531_4785.JPEG
alexnet,1,913,NaN,oven,oven,cr,0913_cl_dnn_cr_oven_40_n04111531_3121.JPEG
alexnet,1,914,NaN,oven,oven,cr,0914_cl_dnn_cr_oven_40_n04111531_8290.JPEG
alexnet,1,915,NaN,oven,oven,cr,0915_cl_dnn_cr_oven_40_n04111531_7134.JPEG
alexnet,1,916,NaN,oven,oven,cr,0916_cl_dnn_cr_oven_40_n04111531_4549.JPEG
alexnet,1,917,NaN,oven,oven,cr,0917_cl_dnn_cr_oven_40_n04111531_3126.JPEG
alexnet,1,918,NaN,oven,oven,cr,0918_cl_dnn_cr_oven_40_n04111531_4467.JPEG
alexnet,1,919,NaN,oven,oven,cr,0919_cl_dnn_cr_oven_40_n04111531_11848.JPEG
alexnet,1,920,NaN,oven,oven,cr,0920_cl_dnn_cr_oven_40_n04111531_11655.JPEG
alexnet,1,921,NaN,chair,chair,cr,0921_cl_dnn_cr_chair_40_n03376595_10838.JPEG
alexnet,1,922,NaN,dog,chair,cr,0922_cl_dnn_cr_chair_40_n04099969_9079.JPEG
alexnet,1,923,NaN,chair,chair,cr,0923_cl_dnn_cr_chair_40_n02791124_5908.JPEG
alexnet,1,924,NaN,chair,chair,cr,0924_cl_dnn_cr_chair_40_n04429376_1381.JPEG
alexnet,1,925,NaN,boat,chair,cr,0925_cl_dnn_cr_chair_40_n04429376_49840.JPEG
alexnet,1,926,NaN,chair,chair,cr,0926_cl_dnn_cr_chair_40_n03376595_2891.JPEG
alexnet,1,927,NaN,chair,chair,cr,0927_cl_dnn_cr_chair_40_n02791124_1557.JPEG
alexnet,1,928,NaN,chair,chair,cr,0928_cl_dnn_cr_chair_40_n04099969_4049.JPEG
alexnet,1,929,NaN,chair,chair,cr,0929_cl_dnn_cr_chair_40_n04099969_5598.JPEG
alexnet,1,930,NaN,chair,chair,cr,0930_cl_dnn_cr_chair_40_n03376595_17658.JPEG
alexnet,1,931,NaN,chair,chair,cr,0931_cl_dnn_cr_chair_40_n04429376_1240.JPEG
alexnet,1,932,NaN,chair,chair,cr,0932_cl_dnn_cr_chair_40_n03376595_344.JPEG
alexnet,1,933,NaN,chair,chair,cr,0933_cl_dnn_cr_chair_40_n04099969_10261.JPEG
alexnet,1,934,NaN,chair,chair,cr,0934_cl_dnn_cr_chair_40_n03376595_8319.JPEG
alexnet,1,935,NaN,chair,chair,cr,0935_cl_dnn_cr_chair_40_n04099969_25659.JPEG
alexnet,1,936,NaN,chair,chair,cr,0936_cl_dnn_cr_chair_40_n04099969_1998.JPEG
alexnet,1,937,NaN,chair,chair,cr,0937_cl_dnn_cr_chair_40_n04429376_24716.JPEG
alexnet,1,938,NaN,dog,chair,cr,0938_cl_dnn_cr_chair_40_n04099969_9271.JPEG
alexnet,1,939,NaN,chair,chair,cr,0939_cl_dnn_cr_chair_40_n02791124_3994.JPEG
alexnet,1,940,NaN,chair,chair,cr,0940_cl_dnn_cr_chair_40_n04429376_23293.JPEG
alexnet,1,941,NaN,chair,chair,cr,0941_cl_dnn_cr_chair_40_n04429376_9589.JPEG
alexnet,1,942,NaN,chair,chair,cr,0942_cl_dnn_cr_chair_40_n03376595_535.JPEG
alexnet,1,943,NaN,chair,chair,cr,0943_cl_dnn_cr_chair_40_n04099969_7274.JPEG
alexnet,1,944,NaN,chair,chair,cr,0944_cl_dnn_cr_chair_40_n04099969_28139.JPEG
alexnet,1,945,NaN,chair,chair,cr,0945_cl_dnn_cr_chair_40_n04099969_6268.JPEG
alexnet,1,946,NaN,chair,chair,cr,0946_cl_dnn_cr_chair_40_n04429376_20188.JPEG
alexnet,1,947,NaN,chair,chair,cr,0947_cl_dnn_cr_chair_40_n04099969_16142.JPEG
alexnet,1,948,NaN,chair,chair,cr,0948_cl_dnn_cr_chair_40_n04099969_21186.JPEG
alexnet,1,949,NaN,chair,chair,cr,0949_cl_dnn_cr_chair_40_n04099969_7391.JPEG
alexnet,1,950,NaN,chair,chair,cr,0950_cl_dnn_cr_chair_40_n04429376_10449.JPEG
alexnet,1,951,NaN,chair,chair,cr,0951_cl_dnn_cr_chair_40_n04429376_25756.JPEG
alexnet,1,952,NaN,chair,chair,cr,0952_cl_dnn_cr_chair_40_n02791124_2343.JPEG
alexnet,1,953,NaN,chair,chair,cr,0953_cl_dnn_cr_chair_40_n04099969_39368.JPEG
alexnet,1,954,NaN,chair,chair,cr,0954_cl_dnn_cr_chair_40_n04099969_2408.JPEG
alexnet,1,955,NaN,chair,chair,cr,0955_cl_dnn_cr_chair_40_n03376595_8694.JPEG
alexnet,1,956,NaN,chair,chair,cr,0956_cl_dnn_cr_chair_40_n04429376_20873.JPEG
alexnet,1,957,NaN,chair,chair,cr,0957_cl_dnn_cr_chair_40_n02791124_11333.JPEG
alexnet,1,958,NaN,chair,chair,cr,0958_cl_dnn_cr_chair_40_n04099969_13734.JPEG
alexnet,1,959,NaN,chair,chair,cr,0959_cl_dnn_cr_chair_40_n04099969_39773.JPEG
alexnet,1,960,NaN,chair,chair,cr,0960_cl_dnn_cr_chair_40_n02791124_5405.JPEG
alexnet,1,961,NaN,bear,bear,cr,0961_cl_dnn_cr_bear_40_n02132136_9319.JPEG
alexnet,1,962,NaN,bear,bear,cr,0962_cl_dnn_cr_bear_40_n02134084_20871.JPEG
alexnet,1,963,NaN,bear,bear,cr,0963_cl_dnn_cr_bear_40_n02132136_8301.JPEG
alexnet,1,964,NaN,bear,bear,cr,0964_cl_dnn_cr_bear_40_n02132136_2752.JPEG
alexnet,1,965,NaN,bear,bear,cr,0965_cl_dnn_cr_bear_40_n02132136_8090.JPEG
alexnet,1,966,NaN,dog,bear,cr,0966_cl_dnn_cr_bear_40_n02134084_622.JPEG
alexnet,1,967,NaN,dog,bear,cr,0967_cl_dnn_cr_bear_40_n02134418_92.JPEG
alexnet,1,968,NaN,bear,bear,cr,0968_cl_dnn_cr_bear_40_n02133161_1875.JPEG
alexnet,1,969,NaN,bear,bear,cr,0969_cl_dnn_cr_bear_40_n02134418_1750.JPEG
alexnet,1,970,NaN,bear,bear,cr,0970_cl_dnn_cr_bear_40_n02134418_8454.JPEG
alexnet,1,971,NaN,bird,bear,cr,0971_cl_dnn_cr_bear_40_n02133161_895.JPEG
alexnet,1,972,NaN,bear,bear,cr,0972_cl_dnn_cr_bear_40_n02134084_13662.JPEG
alexnet,1,973,NaN,bear,bear,cr,0973_cl_dnn_cr_bear_40_n02133161_1952.JPEG
alexnet,1,974,NaN,bear,bear,cr,0974_cl_dnn_cr_bear_40_n02133161_8835.JPEG
alexnet,1,975,NaN,bear,bear,cr,0975_cl_dnn_cr_bear_40_n02132136_8816.JPEG
alexnet,1,976,NaN,bear,bear,cr,0976_cl_dnn_cr_bear_40_n02132136_18953.JPEG
alexnet,1,977,NaN,bear,bear,cr,0977_cl_dnn_cr_bear_40_n02134418_260.JPEG
alexnet,1,978,NaN,bear,bear,cr,0978_cl_dnn_cr_bear_40_n02134418_14365.JPEG
alexnet,1,979,NaN,bear,bear,cr,0979_cl_dnn_cr_bear_40_n02134418_2412.JPEG
alexnet,1,980,NaN,bear,bear,cr,0980_cl_dnn_cr_bear_40_n02134418_3148.JPEG
alexnet,1,981,NaN,bear,bear,cr,0981_cl_dnn_cr_bear_40_n02133161_14204.JPEG
alexnet,1,982,NaN,bear,bear,cr,0982_cl_dnn_cr_bear_40_n02134418_1076.JPEG
alexnet,1,983,NaN,bear,bear,cr,0983_cl_dnn_cr_bear_40_n02134084_1288.JPEG
alexnet,1,984,NaN,bear,bear,cr,0984_cl_dnn_cr_bear_40_n02133161_5606.JPEG
alexnet,1,985,NaN,bear,bear,cr,0985_cl_dnn_cr_bear_40_n02132136_2108.JPEG
alexnet,1,986,NaN,bear,bear,cr,0986_cl_dnn_cr_bear_40_n02134084_3479.JPEG
alexnet,1,987,NaN,dog,bear,cr,0987_cl_dnn_cr_bear_40_n02133161_4398.JPEG
alexnet,1,988,NaN,bear,bear,cr,0988_cl_dnn_cr_bear_40_n02134084_7570.JPEG
alexnet,1,989,NaN,bear,bear,cr,0989_cl_dnn_cr_bear_40_n02134418_5630.JPEG
alexnet,1,990,NaN,bear,bear,cr,0990_cl_dnn_cr_bear_40_n02132136_6832.JPEG
alexnet,1,991,NaN,bear,bear,cr,0991_cl_dnn_cr_bear_40_n02134084_263.JPEG
alexnet,1,992,NaN,bear,bear,cr,0992_cl_dnn_cr_bear_40_n02134084_16176.JPEG
alexnet,1,993,NaN,bear,bear,cr,0993_cl_dnn_cr_bear_40_n02133161_2929.JPEG
alexnet,1,994,NaN,bear,bear,cr,0994_cl_dnn_cr_bear_40_n02134084_4853.JPEG
alexnet,1,995,NaN,bear,bear,cr,0995_cl_dnn_cr_bear_40_n02134084_650.JPEG
alexnet,1,996,NaN,bird,bear,cr,0996_cl_dnn_cr_bear_40_n02134418_5478.JPEG
alexnet,1,997,NaN,bear,bear,cr,0997_cl_dnn_cr_bear_40_n02134418_84.JPEG
alexnet,1,998,NaN,bear,bear,cr,0998_cl_dnn_cr_bear_40_n02134084_6759.JPEG
alexnet,1,999,NaN,bear,bear,cr,0999_cl_dnn_cr_bear_40_n02133161_6427.JPEG
alexnet,1,1000,NaN,bear,bear,cr,1000_cl_dnn_cr_bear_40_n02134084_23594.JPEG
alexnet,1,1001,NaN,boat,boat,cr,1001_cl_dnn_cr_boat_40_n03662601_21992.JPEG
alexnet,1,1002,NaN,boat,boat,cr,1002_cl_dnn_cr_boat_40_n04612504_10637.JPEG
alexnet,1,1003,NaN,boat,boat,cr,1003_cl_dnn_cr_boat_40_n03344393_9255.JPEG
alexnet,1,1004,NaN,boat,boat,cr,1004_cl_dnn_cr_boat_40_n02951358_12954.JPEG
alexnet,1,1005,NaN,boat,boat,cr,1005_cl_dnn_cr_boat_40_n02951358_35095.JPEG
alexnet,1,1006,NaN,boat,boat,cr,1006_cl_dnn_cr_boat_40_n04612504_22877.JPEG
alexnet,1,1007,NaN,boat,boat,cr,1007_cl_dnn_cr_boat_40_n04612504_13515.JPEG
alexnet,1,1008,NaN,boat,boat,cr,1008_cl_dnn_cr_boat_40_n03344393_5532.JPEG
alexnet,1,1009,NaN,boat,boat,cr,1009_cl_dnn_cr_boat_40_n02951358_33143.JPEG
alexnet,1,1010,NaN,boat,boat,cr,1010_cl_dnn_cr_boat_40_n02951358_20000.JPEG
alexnet,1,1011,NaN,boat,boat,cr,1011_cl_dnn_cr_boat_40_n04273569_14634.JPEG
alexnet,1,1012,NaN,boat,boat,cr,1012_cl_dnn_cr_boat_40_n03344393_8140.JPEG
alexnet,1,1013,NaN,boat,boat,cr,1013_cl_dnn_cr_boat_40_n04612504_9558.JPEG
alexnet,1,1014,NaN,boat,boat,cr,1014_cl_dnn_cr_boat_40_n04273569_16131.JPEG
alexnet,1,1015,NaN,boat,boat,cr,1015_cl_dnn_cr_boat_40_n02951358_10512.JPEG
alexnet,1,1016,NaN,boat,boat,cr,1016_cl_dnn_cr_boat_40_n02951358_13490.JPEG
alexnet,1,1017,NaN,boat,boat,cr,1017_cl_dnn_cr_boat_40_n02951358_10626.JPEG
alexnet,1,1018,NaN,boat,boat,cr,1018_cl_dnn_cr_boat_40_n03662601_34496.JPEG
alexnet,1,1019,NaN,boat,boat,cr,1019_cl_dnn_cr_boat_40_n03344393_10038.JPEG
alexnet,1,1020,NaN,boat,boat,cr,1020_cl_dnn_cr_boat_40_n04273569_4917.JPEG
alexnet,1,1021,NaN,boat,boat,cr,1021_cl_dnn_cr_boat_40_n03662601_9127.JPEG
alexnet,1,1022,NaN,boat,boat,cr,1022_cl_dnn_cr_boat_40_n03344393_8504.JPEG
alexnet,1,1023,NaN,boat,boat,cr,1023_cl_dnn_cr_boat_40_n03344393_2480.JPEG
alexnet,1,1024,NaN,boat,boat,cr,1024_cl_dnn_cr_boat_40_n03344393_3864.JPEG
alexnet,1,1025,NaN,boat,boat,cr,1025_cl_dnn_cr_boat_40_n02951358_2261.JPEG
alexnet,1,1026,NaN,boat,boat,cr,1026_cl_dnn_cr_boat_40_n02951358_30342.JPEG
alexnet,1,1027,NaN,boat,boat,cr,1027_cl_dnn_cr_boat_40_n02951358_5710.JPEG
alexnet,1,1028,NaN,boat,boat,cr,1028_cl_dnn_cr_boat_40_n04273569_9265.JPEG
alexnet,1,1029,NaN,boat,boat,cr,1029_cl_dnn_cr_boat_40_n04612504_6289.JPEG
alexnet,1,1030,NaN,boat,boat,cr,1030_cl_dnn_cr_boat_40_n04273569_19314.JPEG
alexnet,1,1031,NaN,boat,boat,cr,1031_cl_dnn_cr_boat_40_n03344393_3452.JPEG
alexnet,1,1032,NaN,boat,boat,cr,1032_cl_dnn_cr_boat_40_n04273569_3893.JPEG
alexnet,1,1033,NaN,truck,boat,cr,1033_cl_dnn_cr_boat_40_n04612504_17610.JPEG
alexnet,1,1034,NaN,boat,boat,cr,1034_cl_dnn_cr_boat_40_n04273569_12324.JPEG
alexnet,1,1035,NaN,boat,boat,cr,1035_cl_dnn_cr_boat_40_n03662601_5210.JPEG
alexnet,1,1036,NaN,boat,boat,cr,1036_cl_dnn_cr_boat_40_n04612504_19912.JPEG
alexnet,1,1037,NaN,boat,boat,cr,1037_cl_dnn_cr_boat_40_n04273569_7217.JPEG
alexnet,1,1038,NaN,boat,boat,cr,1038_cl_dnn_cr_boat_40_n03344393_4669.JPEG
alexnet,1,1039,NaN,boat,boat,cr,1039_cl_dnn_cr_boat_40_n03344393_2973.JPEG
alexnet,1,1040,NaN,boat,boat,cr,1040_cl_dnn_cr_boat_40_n03662601_12169.JPEG
alexnet,1,1041,NaN,dog,cat,cr,1041_cl_dnn_cr_cat_40_n02123597_11248.JPEG
alexnet,1,1042,NaN,cat,cat,cr,1042_cl_dnn_cr_cat_40_n02123394_4696.JPEG
alexnet,1,1043,NaN,cat,cat,cr,1043_cl_dnn_cr_cat_40_n02123045_3281.JPEG
alexnet,1,1044,NaN,bear,cat,cr,1044_cl_dnn_cr_cat_40_n02124075_7338.JPEG
alexnet,1,1045,NaN,cat,cat,cr,1045_cl_dnn_cr_cat_40_n02125311_46650.JPEG
alexnet,1,1046,NaN,cat,cat,cr,1046_cl_dnn_cr_cat_40_n02125311_22256.JPEG
alexnet,1,1047,NaN,cat,cat,cr,1047_cl_dnn_cr_cat_40_n02125311_44337.JPEG
alexnet,1,1048,NaN,cat,cat,cr,1048_cl_dnn_cr_cat_40_n02123394_2725.JPEG
alexnet,1,1049,NaN,cat,cat,cr,1049_cl_dnn_cr_cat_40_n02123597_4294.JPEG
alexnet,1,1050,NaN,cat,cat,cr,1050_cl_dnn_cr_cat_40_n02123159_4133.JPEG
alexnet,1,1051,NaN,cat,cat,cr,1051_cl_dnn_cr_cat_40_n02125311_8725.JPEG
alexnet,1,1052,NaN,cat,cat,cr,1052_cl_dnn_cr_cat_40_n02123597_10707.JPEG
alexnet,1,1053,NaN,dog,cat,cr,1053_cl_dnn_cr_cat_40_n02125311_5345.JPEG
alexnet,1,1054,NaN,cat,cat,cr,1054_cl_dnn_cr_cat_40_n02123045_7894.JPEG
alexnet,1,1055,NaN,cat,cat,cr,1055_cl_dnn_cr_cat_40_n02125311_5259.JPEG
alexnet,1,1056,NaN,cat,cat,cr,1056_cl_dnn_cr_cat_40_n02123045_5057.JPEG
alexnet,1,1057,NaN,cat,cat,cr,1057_cl_dnn_cr_cat_40_n02123045_1389.JPEG
alexnet,1,1058,NaN,cat,cat,cr,1058_cl_dnn_cr_cat_40_n02124075_7693.JPEG
alexnet,1,1059,NaN,cat,cat,cr,1059_cl_dnn_cr_cat_40_n02123597_9893.JPEG
alexnet,1,1060,NaN,cat,cat,cr,1060_cl_dnn_cr_cat_40_n02124075_18222.JPEG
alexnet,1,1061,NaN,cat,cat,cr,1061_cl_dnn_cr_cat_40_n02125311_6429.JPEG
alexnet,1,1062,NaN,cat,cat,cr,1062_cl_dnn_cr_cat_40_n02123159_3299.JPEG
alexnet,1,1063,NaN,cat,cat,cr,1063_cl_dnn_cr_cat_40_n02123597_27865.JPEG
alexnet,1,1064,NaN,cat,cat,cr,1064_cl_dnn_cr_cat_40_n02123045_3819.JPEG
alexnet,1,1065,NaN,cat,cat,cr,1065_cl_dnn_cr_cat_40_n02123597_11635.JPEG
alexnet,1,1066,NaN,cat,cat,cr,1066_cl_dnn_cr_cat_40_n02123159_7787.JPEG
alexnet,1,1067,NaN,cat,cat,cr,1067_cl_dnn_cr_cat_40_n02123597_3235.JPEG
alexnet,1,1068,NaN,cat,cat,cr,1068_cl_dnn_cr_cat_40_n02123597_1158.JPEG
alexnet,1,1069,NaN,dog,cat,cr,1069_cl_dnn_cr_cat_40_n02123159_2808.JPEG
alexnet,1,1070,NaN,cat,cat,cr,1070_cl_dnn_cr_cat_40_n02123159_5106.JPEG
alexnet,1,1071,NaN,cat,cat,cr,1071_cl_dnn_cr_cat_40_n02123045_11096.JPEG
alexnet,1,1072,NaN,cat,cat,cr,1072_cl_dnn_cr_cat_40_n02123394_1424.JPEG
alexnet,1,1073,NaN,cat,cat,cr,1073_cl_dnn_cr_cat_40_n02123159_1240.JPEG
alexnet,1,1074,NaN,cat,cat,cr,1074_cl_dnn_cr_cat_40_n02123045_11514.JPEG
alexnet,1,1075,NaN,cat,cat,cr,1075_cl_dnn_cr_cat_40_n02125311_11476.JPEG
alexnet,1,1076,NaN,cat,cat,cr,1076_cl_dnn_cr_cat_40_n02123159_3486.JPEG
alexnet,1,1077,NaN,cat,cat,cr,1077_cl_dnn_cr_cat_40_n02125311_4139.JPEG
alexnet,1,1078,NaN,cat,cat,cr,1078_cl_dnn_cr_cat_40_n02123045_13299.JPEG
alexnet,1,1079,NaN,cat,cat,cr,1079_cl_dnn_cr_cat_40_n02124075_5475.JPEG
alexnet,1,1080,NaN,cat,cat,cr,1080_cl_dnn_cr_cat_40_n02123045_12692.JPEG
alexnet,1,1081,NaN,bottle,bottle,cr,1081_cl_dnn_cr_bottle_40_n04557648_31129.JPEG
alexnet,1,1082,NaN,bottle,bottle,cr,1082_cl_dnn_cr_bottle_40_n04557648_5494.JPEG
alexnet,1,1083,NaN,bottle,bottle,cr,1083_cl_dnn_cr_bottle_40_n04560804_15498.JPEG
alexnet,1,1084,NaN,knife,bottle,cr,1084_cl_dnn_cr_bottle_40_n04560804_20128.JPEG
alexnet,1,1085,NaN,bottle,bottle,cr,1085_cl_dnn_cr_bottle_40_n04557648_10782.JPEG
alexnet,1,1086,NaN,bottle,bottle,cr,1086_cl_dnn_cr_bottle_40_n04591713_4749.JPEG
alexnet,1,1087,NaN,bottle,bottle,cr,1087_cl_dnn_cr_bottle_40_n04557648_4354.JPEG
alexnet,1,1088,NaN,bottle,bottle,cr,1088_cl_dnn_cr_bottle_40_n04560804_6067.JPEG
alexnet,1,1089,NaN,bottle,bottle,cr,1089_cl_dnn_cr_bottle_40_n02823428_2754.JPEG
alexnet,1,1090,NaN,bottle,bottle,cr,1090_cl_dnn_cr_bottle_40_n02823428_6888.JPEG
alexnet,1,1091,NaN,bottle,bottle,cr,1091_cl_dnn_cr_bottle_40_n03983396_822.JPEG
alexnet,1,1092,NaN,bottle,bottle,cr,1092_cl_dnn_cr_bottle_40_n03937543_1812.JPEG
alexnet,1,1093,NaN,bottle,bottle,cr,1093_cl_dnn_cr_bottle_40_n04557648_3653.JPEG
alexnet,1,1094,NaN,bottle,bottle,cr,1094_cl_dnn_cr_bottle_40_n04557648_4039.JPEG
alexnet,1,1095,NaN,bird,bottle,cr,1095_cl_dnn_cr_bottle_40_n04560804_10248.JPEG
alexnet,1,1096,NaN,bottle,bottle,cr,1096_cl_dnn_cr_bottle_40_n02823428_3003.JPEG
alexnet,1,1097,NaN,bottle,bottle,cr,1097_cl_dnn_cr_bottle_40_n02823428_9528.JPEG
alexnet,1,1098,NaN,bottle,bottle,cr,1098_cl_dnn_cr_bottle_40_n04591713_3090.JPEG
alexnet,1,1099,NaN,keyboard,bottle,cr,1099_cl_dnn_cr_bottle_40_n03937543_4134.JPEG
alexnet,1,1100,NaN,bottle,bottle,cr,1100_cl_dnn_cr_bottle_40_n04557648_12541.JPEG
alexnet,1,1101,NaN,bottle,bottle,cr,1101_cl_dnn_cr_bottle_40_n04579145_3731.JPEG
alexnet,1,1102,NaN,bird,bottle,cr,1102_cl_dnn_cr_bottle_40_n04591713_2103.JPEG
alexnet,1,1103,NaN,bottle,bottle,cr,1103_cl_dnn_cr_bottle_40_n04557648_19475.JPEG
alexnet,1,1104,NaN,bottle,bottle,cr,1104_cl_dnn_cr_bottle_40_n04560804_5351.JPEG
alexnet,1,1105,NaN,bottle,bottle,cr,1105_cl_dnn_cr_bottle_40_n02823428_3.JPEG
alexnet,1,1106,NaN,bottle,bottle,cr,1106_cl_dnn_cr_bottle_40_n03937543_26.JPEG
alexnet,1,1107,NaN,bottle,bottle,cr,1107_cl_dnn_cr_bottle_40_n04591713_5364.JPEG
alexnet,1,1108,NaN,bottle,bottle,cr,1108_cl_dnn_cr_bottle_40_n04560804_12322.JPEG
alexnet,1,1109,NaN,bottle,bottle,cr,1109_cl_dnn_cr_bottle_40_n04591713_2701.JPEG
alexnet,1,1110,NaN,bottle,bottle,cr,1110_cl_dnn_cr_bottle_40_n04557648_5967.JPEG
alexnet,1,1111,NaN,bottle,bottle,cr,1111_cl_dnn_cr_bottle_40_n02823428_14381.JPEG
alexnet,1,1112,NaN,bottle,bottle,cr,1112_cl_dnn_cr_bottle_40_n04579145_6802.JPEG
alexnet,1,1113,NaN,bottle,bottle,cr,1113_cl_dnn_cr_bottle_40_n03937543_1433.JPEG
alexnet,1,1114,NaN,bottle,bottle,cr,1114_cl_dnn_cr_bottle_40_n04560804_14832.JPEG
alexnet,1,1115,NaN,bottle,bottle,cr,1115_cl_dnn_cr_bottle_40_n03983396_65.JPEG
alexnet,1,1116,NaN,chair,bottle,cr,1116_cl_dnn_cr_bottle_40_n03983396_10060.JPEG
alexnet,1,1117,NaN,bottle,bottle,cr,1117_cl_dnn_cr_bottle_40_n04557648_163.JPEG
alexnet,1,1118,NaN,bottle,bottle,cr,1118_cl_dnn_cr_bottle_40_n02823428_5082.JPEG
alexnet,1,1119,NaN,bottle,bottle,cr,1119_cl_dnn_cr_bottle_40_n03983396_12065.JPEG
alexnet,1,1120,NaN,bottle,bottle,cr,1120_cl_dnn_cr_bottle_40_n03983396_8294.JPEG
alexnet,1,1121,NaN,truck,truck,cr,1121_cl_dnn_cr_truck_40_n03417042_3140.JPEG
alexnet,1,1122,NaN,truck,truck,cr,1122_cl_dnn_cr_truck_40_n03417042_11031.JPEG
alexnet,1,1123,NaN,truck,truck,cr,1123_cl_dnn_cr_truck_40_n03417042_18932.JPEG
alexnet,1,1124,NaN,truck,truck,cr,1124_cl_dnn_cr_truck_40_n04467665_64375.JPEG
alexnet,1,1125,NaN,car,truck,cr,1125_cl_dnn_cr_truck_40_n03417042_20713.JPEG
alexnet,1,1126,NaN,truck,truck,cr,1126_cl_dnn_cr_truck_40_n03796401_23501.JPEG
alexnet,1,1127,NaN,truck,truck,cr,1127_cl_dnn_cr_truck_40_n04467665_24092.JPEG
alexnet,1,1128,NaN,truck,truck,cr,1128_cl_dnn_cr_truck_40_n03417042_20919.JPEG
alexnet,1,1129,NaN,truck,truck,cr,1129_cl_dnn_cr_truck_40_n04467665_531.JPEG
alexnet,1,1130,NaN,truck,truck,cr,1130_cl_dnn_cr_truck_40_n03417042_18981.JPEG
alexnet,1,1131,NaN,truck,truck,cr,1131_cl_dnn_cr_truck_40_n03417042_4292.JPEG
alexnet,1,1132,NaN,truck,truck,cr,1132_cl_dnn_cr_truck_40_n04467665_1292.JPEG
alexnet,1,1133,NaN,truck,truck,cr,1133_cl_dnn_cr_truck_40_n03417042_13783.JPEG
alexnet,1,1134,NaN,truck,truck,cr,1134_cl_dnn_cr_truck_40_n03417042_7013.JPEG
alexnet,1,1135,NaN,truck,truck,cr,1135_cl_dnn_cr_truck_40_n03417042_5510.JPEG
alexnet,1,1136,NaN,truck,truck,cr,1136_cl_dnn_cr_truck_40_n03417042_10751.JPEG
alexnet,1,1137,NaN,truck,truck,cr,1137_cl_dnn_cr_truck_40_n03796401_7104.JPEG
alexnet,1,1138,NaN,truck,truck,cr,1138_cl_dnn_cr_truck_40_n03417042_11944.JPEG
alexnet,1,1139,NaN,truck,truck,cr,1139_cl_dnn_cr_truck_40_n03417042_10676.JPEG
alexnet,1,1140,NaN,truck,truck,cr,1140_cl_dnn_cr_truck_40_n03796401_12606.JPEG
alexnet,1,1141,NaN,truck,truck,cr,1141_cl_dnn_cr_truck_40_n03417042_1841.JPEG
alexnet,1,1142,NaN,truck,truck,cr,1142_cl_dnn_cr_truck_40_n03417042_3698.JPEG
alexnet,1,1143,NaN,truck,truck,cr,1143_cl_dnn_cr_truck_40_n03417042_17839.JPEG
alexnet,1,1144,NaN,truck,truck,cr,1144_cl_dnn_cr_truck_40_n03796401_28635.JPEG
alexnet,1,1145,NaN,truck,truck,cr,1145_cl_dnn_cr_truck_40_n03417042_4600.JPEG
alexnet,1,1146,NaN,truck,truck,cr,1146_cl_dnn_cr_truck_40_n04467665_1840.JPEG
alexnet,1,1147,NaN,truck,truck,cr,1147_cl_dnn_cr_truck_40_n03417042_7581.JPEG
alexnet,1,1148,NaN,truck,truck,cr,1148_cl_dnn_cr_truck_40_n04467665_3374.JPEG
alexnet,1,1149,NaN,truck,truck,cr,1149_cl_dnn_cr_truck_40_n03796401_6472.JPEG
alexnet,1,1150,NaN,truck,truck,cr,1150_cl_dnn_cr_truck_40_n03796401_14015.JPEG
alexnet,1,1151,NaN,truck,truck,cr,1151_cl_dnn_cr_truck_40_n03417042_2056.JPEG
alexnet,1,1152,NaN,truck,truck,cr,1152_cl_dnn_cr_truck_40_n03796401_28856.JPEG
alexnet,1,1153,NaN,truck,truck,cr,1153_cl_dnn_cr_truck_40_n04467665_19132.JPEG
alexnet,1,1154,NaN,truck,truck,cr,1154_cl_dnn_cr_truck_40_n03417042_8998.JPEG
alexnet,1,1155,NaN,truck,truck,cr,1155_cl_dnn_cr_truck_40_n03417042_910.JPEG
alexnet,1,1156,NaN,truck,truck,cr,1156_cl_dnn_cr_truck_40_n04467665_65573.JPEG
alexnet,1,1157,NaN,truck,truck,cr,1157_cl_dnn_cr_truck_40_n03417042_3482.JPEG
alexnet,1,1158,NaN,truck,truck,cr,1158_cl_dnn_cr_truck_40_n03417042_3710.JPEG
alexnet,1,1159,NaN,truck,truck,cr,1159_cl_dnn_cr_truck_40_n03417042_20650.JPEG
alexnet,1,1160,NaN,truck,truck,cr,1160_cl_dnn_cr_truck_40_n03417042_1991.JPEG
alexnet,1,1161,NaN,car,car,cr,1161_cl_dnn_cr_car_40_n04285008_14161.JPEG
alexnet,1,1162,NaN,car,car,cr,1162_cl_dnn_cr_car_40_n04285008_7215.JPEG
alexnet,1,1163,NaN,car,car,cr,1163_cl_dnn_cr_car_40_n04285008_9942.JPEG
alexnet,1,1164,NaN,car,car,cr,1164_cl_dnn_cr_car_40_n03100240_1783.JPEG
alexnet,1,1165,NaN,car,car,cr,1165_cl_dnn_cr_car_40_n02814533_65759.JPEG
alexnet,1,1166,NaN,car,car,cr,1166_cl_dnn_cr_car_40_n03100240_9099.JPEG
alexnet,1,1167,NaN,car,car,cr,1167_cl_dnn_cr_car_40_n02814533_92353.JPEG
alexnet,1,1168,NaN,car,car,cr,1168_cl_dnn_cr_car_40_n02814533_35335.JPEG
alexnet,1,1169,NaN,car,car,cr,1169_cl_dnn_cr_car_40_n02814533_26946.JPEG
alexnet,1,1170,NaN,car,car,cr,1170_cl_dnn_cr_car_40_n03100240_9484.JPEG
alexnet,1,1171,NaN,car,car,cr,1171_cl_dnn_cr_car_40_n02814533_9345.JPEG
alexnet,1,1172,NaN,car,car,cr,1172_cl_dnn_cr_car_40_n03100240_7316.JPEG
alexnet,1,1173,NaN,car,car,cr,1173_cl_dnn_cr_car_40_n03100240_3083.JPEG
alexnet,1,1174,NaN,car,car,cr,1174_cl_dnn_cr_car_40_n03100240_4167.JPEG
alexnet,1,1175,NaN,car,car,cr,1175_cl_dnn_cr_car_40_n02814533_92493.JPEG
alexnet,1,1176,NaN,car,car,cr,1176_cl_dnn_cr_car_40_n03100240_20402.JPEG
alexnet,1,1177,NaN,car,car,cr,1177_cl_dnn_cr_car_40_n04285008_8552.JPEG
alexnet,1,1178,NaN,car,car,cr,1178_cl_dnn_cr_car_40_n04285008_9923.JPEG
alexnet,1,1179,NaN,car,car,cr,1179_cl_dnn_cr_car_40_n04285008_885.JPEG
alexnet,1,1180,NaN,car,car,cr,1180_cl_dnn_cr_car_40_n04285008_2298.JPEG
alexnet,1,1181,NaN,car,car,cr,1181_cl_dnn_cr_car_40_n04285008_1573.JPEG
alexnet,1,1182,NaN,car,car,cr,1182_cl_dnn_cr_car_40_n04285008_3630.JPEG
alexnet,1,1183,NaN,car,car,cr,1183_cl_dnn_cr_car_40_n03100240_6514.JPEG
alexnet,1,1184,NaN,car,car,cr,1184_cl_dnn_cr_car_40_n02814533_21254.JPEG
alexnet,1,1185,NaN,car,car,cr,1185_cl_dnn_cr_car_40_n04285008_2906.JPEG
alexnet,1,1186,NaN,car,car,cr,1186_cl_dnn_cr_car_40_n02814533_93804.JPEG
alexnet,1,1187,NaN,car,car,cr,1187_cl_dnn_cr_car_40_n02814533_73382.JPEG
alexnet,1,1188,NaN,car,car,cr,1188_cl_dnn_cr_car_40_n02814533_29484.JPEG
alexnet,1,1189,NaN,truck,car,cr,1189_cl_dnn_cr_car_40_n04285008_13021.JPEG
alexnet,1,1190,NaN,car,car,cr,1190_cl_dnn_cr_car_40_n03100240_8480.JPEG
alexnet,1,1191,NaN,car,car,cr,1191_cl_dnn_cr_car_40_n03100240_23581.JPEG
alexnet,1,1192,NaN,car,car,cr,1192_cl_dnn_cr_car_40_n04285008_7951.JPEG
alexnet,1,1193,NaN,car,car,cr,1193_cl_dnn_cr_car_40_n03100240_13602.JPEG
alexnet,1,1194,NaN,car,car,cr,1194_cl_dnn_cr_car_40_n02814533_95618.JPEG
alexnet,1,1195,NaN,car,car,cr,1195_cl_dnn_cr_car_40_n02814533_77450.JPEG
alexnet,1,1196,NaN,car,car,cr,1196_cl_dnn_cr_car_40_n03100240_5395.JPEG
alexnet,1,1197,NaN,car,car,cr,1197_cl_dnn_cr_car_40_n03100240_10078.JPEG
alexnet,1,1198,NaN,truck,car,cr,1198_cl_dnn_cr_car_40_n03100240_12707.JPEG
alexnet,1,1199,NaN,car,car,cr,1199_cl_dnn_cr_car_40_n02814533_6498.JPEG
alexnet,1,1200,NaN,car,car,cr,1200_cl_dnn_cr_car_40_n04285008_12754.JPEG
alexnet,1,1201,NaN,bird,bird,cr,1201_cl_dnn_cr_bird_40_n01622779_6178.JPEG
alexnet,1,1202,NaN,bird,bird,cr,1202_cl_dnn_cr_bird_40_n01514859_9986.JPEG
alexnet,1,1203,NaN,bird,bird,cr,1203_cl_dnn_cr_bird_40_n01795545_10804.JPEG
alexnet,1,1204,NaN,bear,bird,cr,1204_cl_dnn_cr_bird_40_n02002724_702.JPEG
alexnet,1,1205,NaN,bird,bird,cr,1205_cl_dnn_cr_bird_40_n02002556_5276.JPEG
alexnet,1,1206,NaN,bird,bird,cr,1206_cl_dnn_cr_bird_40_n01560419_8277.JPEG
alexnet,1,1207,NaN,bird,bird,cr,1207_cl_dnn_cr_bird_40_n01796340_15813.JPEG
alexnet,1,1208,NaN,bird,bird,cr,1208_cl_dnn_cr_bird_40_n01855672_4654.JPEG
alexnet,1,1209,NaN,bird,bird,cr,1209_cl_dnn_cr_bird_40_n01824575_8237.JPEG
alexnet,1,1210,NaN,bird,bird,cr,1210_cl_dnn_cr_bird_40_n01537544_7068.JPEG
alexnet,1,1211,NaN,bird,bird,cr,1211_cl_dnn_cr_bird_40_n02051845_348.JPEG
alexnet,1,1212,NaN,bird,bird,cr,1212_cl_dnn_cr_bird_40_n01819313_5510.JPEG
alexnet,1,1213,NaN,bird,bird,cr,1213_cl_dnn_cr_bird_40_n02018795_772.JPEG
alexnet,1,1214,NaN,bird,bird,cr,1214_cl_dnn_cr_bird_40_n01601694_3308.JPEG
alexnet,1,1215,NaN,bird,bird,cr,1215_cl_dnn_cr_bird_40_n01601694_15376.JPEG
alexnet,1,1216,NaN,bird,bird,cr,1216_cl_dnn_cr_bird_40_n01530575_4497.JPEG
alexnet,1,1217,NaN,bird,bird,cr,1217_cl_dnn_cr_bird_40_n01531178_3153.JPEG
alexnet,1,1218,NaN,oven,bird,cr,1218_cl_dnn_cr_bird_40_n02018795_6547.JPEG
alexnet,1,1219,NaN,bird,bird,cr,1219_cl_dnn_cr_bird_40_n01855032_2964.JPEG
alexnet,1,1220,NaN,bird,bird,cr,1220_cl_dnn_cr_bird_40_n02002556_1043.JPEG
alexnet,1,1221,NaN,bird,bird,cr,1221_cl_dnn_cr_bird_40_n01796340_536.JPEG
alexnet,1,1222,NaN,bird,bird,cr,1222_cl_dnn_cr_bird_40_n01534433_9821.JPEG
alexnet,1,1223,NaN,bird,bird,cr,1223_cl_dnn_cr_bird_40_n02007558_9802.JPEG
alexnet,1,1224,NaN,bird,bird,cr,1224_cl_dnn_cr_bird_40_n01622779_22874.JPEG
alexnet,1,1225,NaN,bird,bird,cr,1225_cl_dnn_cr_bird_40_n01601694_22768.JPEG
alexnet,1,1226,NaN,bird,bird,cr,1226_cl_dnn_cr_bird_40_n02007558_4924.JPEG
alexnet,1,1227,NaN,bird,bird,cr,1227_cl_dnn_cr_bird_40_n02011460_3744.JPEG
alexnet,1,1228,NaN,bird,bird,cr,1228_cl_dnn_cr_bird_40_n02009912_2274.JPEG
alexnet,1,1229,NaN,bird,bird,cr,1229_cl_dnn_cr_bird_40_n01614925_18375.JPEG
alexnet,1,1230,NaN,bird,bird,cr,1230_cl_dnn_cr_bird_40_n01514859_6318.JPEG
alexnet,1,1231,NaN,bird,bird,cr,1231_cl_dnn_cr_bird_40_n02013706_11186.JPEG
alexnet,1,1232,NaN,bird,bird,cr,1232_cl_dnn_cr_bird_40_n01798484_16686.JPEG
alexnet,1,1233,NaN,bird,bird,cr,1233_cl_dnn_cr_bird_40_n02033041_5209.JPEG
alexnet,1,1234,NaN,bird,bird,cr,1234_cl_dnn_cr_bird_40_n01819313_3593.JPEG
alexnet,1,1235,NaN,bird,bird,cr,1235_cl_dnn_cr_bird_40_n01582220_8188.JPEG
alexnet,1,1236,NaN,bird,bird,cr,1236_cl_dnn_cr_bird_40_n01531178_25336.JPEG
alexnet,1,1237,NaN,bird,bird,cr,1237_cl_dnn_cr_bird_40_n01558993_6421.JPEG
alexnet,1,1238,NaN,bird,bird,cr,1238_cl_dnn_cr_bird_40_n01537544_2885.JPEG
alexnet,1,1239,NaN,bird,bird,cr,1239_cl_dnn_cr_bird_40_n02007558_9485.JPEG
alexnet,1,1240,NaN,bird,bird,cr,1240_cl_dnn_cr_bird_40_n01829413_4403.JPEG
alexnet,1,1241,NaN,dog,dog,cr,1241_cl_dnn_cr_dog_40_n02088094_4683.JPEG
alexnet,1,1242,NaN,dog,dog,cr,1242_cl_dnn_cr_dog_40_n02111277_19095.JPEG
alexnet,1,1243,NaN,dog,dog,cr,1243_cl_dnn_cr_dog_40_n02109525_8211.JPEG
alexnet,1,1244,NaN,dog,dog,cr,1244_cl_dnn_cr_dog_40_n02108915_5389.JPEG
alexnet,1,1245,NaN,dog,dog,cr,1245_cl_dnn_cr_dog_40_n02098105_8794.JPEG
alexnet,1,1246,NaN,dog,dog,cr,1246_cl_dnn_cr_dog_40_n02088364_11130.JPEG
alexnet,1,1247,NaN,dog,dog,cr,1247_cl_dnn_cr_dog_40_n02091134_355.JPEG
alexnet,1,1248,NaN,dog,dog,cr,1248_cl_dnn_cr_dog_40_n02097298_8720.JPEG
alexnet,1,1249,NaN,dog,dog,cr,1249_cl_dnn_cr_dog_40_n02090379_2396.JPEG
alexnet,1,1250,NaN,dog,dog,cr,1250_cl_dnn_cr_dog_40_n02110806_23576.JPEG
alexnet,1,1251,NaN,dog,dog,cr,1251_cl_dnn_cr_dog_40_n02096585_7237.JPEG
alexnet,1,1252,NaN,dog,dog,cr,1252_cl_dnn_cr_dog_40_n02094258_3137.JPEG
alexnet,1,1253,NaN,dog,dog,cr,1253_cl_dnn_cr_dog_40_n02111277_4654.JPEG
alexnet,1,1254,NaN,dog,dog,cr,1254_cl_dnn_cr_dog_40_n02088632_2037.JPEG
alexnet,1,1255,NaN,dog,dog,cr,1255_cl_dnn_cr_dog_40_n02097298_10910.JPEG
alexnet,1,1256,NaN,dog,dog,cr,1256_cl_dnn_cr_dog_40_n02091032_4130.JPEG
alexnet,1,1257,NaN,dog,dog,cr,1257_cl_dnn_cr_dog_40_n02087394_33273.JPEG
alexnet,1,1258,NaN,dog,dog,cr,1258_cl_dnn_cr_dog_40_n02093991_7048.JPEG
alexnet,1,1259,NaN,dog,dog,cr,1259_cl_dnn_cr_dog_40_n02091134_15421.JPEG
alexnet,1,1260,NaN,dog,dog,cr,1260_cl_dnn_cr_dog_40_n02097130_4885.JPEG
alexnet,1,1261,NaN,dog,dog,cr,1261_cl_dnn_cr_dog_40_n02107683_5424.JPEG
alexnet,1,1262,NaN,dog,dog,cr,1262_cl_dnn_cr_dog_40_n02104365_5714.JPEG
alexnet,1,1263,NaN,dog,dog,cr,1263_cl_dnn_cr_dog_40_n02087394_10998.JPEG
alexnet,1,1264,NaN,dog,dog,cr,1264_cl_dnn_cr_dog_40_n02110627_12246.JPEG
alexnet,1,1265,NaN,dog,dog,cr,1265_cl_dnn_cr_dog_40_n02086646_3235.JPEG
alexnet,1,1266,NaN,dog,dog,cr,1266_cl_dnn_cr_dog_40_n02094258_4344.JPEG
alexnet,1,1267,NaN,dog,dog,cr,1267_cl_dnn_cr_dog_40_n02106382_9411.JPEG
