subj,session,trial,rt,object_response,category,condition,imagename
googlenet,4,1,NaN,knife,knife,bw,3841_cl_dnn_bw_knife_40_n03041632_2058.JPEG
googlenet,4,2,NaN,knife,knife,bw,3842_cl_dnn_bw_knife_40_n03041632_29580.JPEG
googlenet,4,3,NaN,bottle,knife,bw,3843_cl_dnn_bw_knife_40_n03041632_1556.JPEG
googlenet,4,4,NaN,knife,knife,bw,3844_cl_dnn_bw_knife_40_n03041632_13225.JPEG
googlenet,4,5,NaN,knife,knife,bw,3845_cl_dnn_bw_knife_40_n03041632_5820.JPEG
googlenet,4,6,NaN,knife,knife,bw,3846_cl_dnn_bw_knife_40_n03041632_20662.JPEG
googlenet,4,7,NaN,chair,knife,bw,3847_cl_dnn_bw_knife_40_n03041632_4305.JPEG
googlenet,4,8,NaN,knife,knife,bw,3848_cl_dnn_bw_knife_40_n03041632_18859.JPEG
googlenet,4,9,NaN,knife,knife,bw,3849_cl_dnn_bw_knife_40_n03041632_33075.JPEG
googlenet,4,10,NaN,knife,knife,bw,3850_cl_dnn_bw_knife_40_n03041632_9302.JPEG
googlenet,4,11,NaN,knife,knife,bw,3851_cl_dnn_bw_knife_40_n03041632_105081.JPEG
googlenet,4,12,NaN,knife,knife,bw,3852_cl_dnn_bw_knife_40_n03041632_21477.JPEG
googlenet,4,13,NaN,bottle,knife,bw,3853_cl_dnn_bw_knife_40_n03041632_45636.JPEG
googlenet,4,14,NaN,chair,knife,bw,3854_cl_dnn_bw_knife_40_n03041632_29801.JPEG
googlenet,4,15,NaN,knife,knife,bw,3855_cl_dnn_bw_knife_40_n03041632_54732.JPEG
googlenet,4,16,NaN,knife,knife,bw,3856_cl_dnn_bw_knife_40_n03041632_21345.JPEG
googlenet,4,17,NaN,bottle,knife,bw,3857_cl_dnn_bw_knife_40_n03041632_24798.JPEG
googlenet,4,18,NaN,oven,knife,bw,3858_cl_dnn_bw_knife_40_n03041632_7119.JPEG
googlenet,4,19,NaN,chair,knife,bw,3859_cl_dnn_bw_knife_40_n03041632_18311.JPEG
googlenet,4,20,NaN,chair,knife,bw,3860_cl_dnn_bw_knife_40_n03041632_26314.JPEG
googlenet,4,21,NaN,knife,knife,bw,3861_cl_dnn_bw_knife_40_n03041632_39739.JPEG
googlenet,4,22,NaN,knife,knife,bw,3862_cl_dnn_bw_knife_40_n03041632_24646.JPEG
googlenet,4,23,NaN,knife,knife,bw,3863_cl_dnn_bw_knife_40_n03041632_81943.JPEG
googlenet,4,24,NaN,knife,knife,bw,3864_cl_dnn_bw_knife_40_n03041632_32350.JPEG
googlenet,4,25,NaN,knife,knife,bw,3865_cl_dnn_bw_knife_40_n03041632_45326.JPEG
googlenet,4,26,NaN,knife,knife,bw,3866_cl_dnn_bw_knife_40_n03041632_1201.JPEG
googlenet,4,27,NaN,knife,knife,bw,3867_cl_dnn_bw_knife_40_n03041632_1407.JPEG
googlenet,4,28,NaN,knife,knife,bw,3868_cl_dnn_bw_knife_40_n03041632_11816.JPEG
googlenet,4,29,NaN,knife,knife,bw,3869_cl_dnn_bw_knife_40_n03041632_80317.JPEG
googlenet,4,30,NaN,knife,knife,bw,3870_cl_dnn_bw_knife_40_n03041632_31909.JPEG
googlenet,4,31,NaN,knife,knife,bw,3871_cl_dnn_bw_knife_40_n03041632_28129.JPEG
googlenet,4,32,NaN,knife,knife,bw,3872_cl_dnn_bw_knife_40_n03041632_3326.JPEG
googlenet,4,33,NaN,chair,knife,bw,3873_cl_dnn_bw_knife_40_n03041632_43975.JPEG
googlenet,4,34,NaN,knife,knife,bw,3874_cl_dnn_bw_knife_40_n03041632_40508.JPEG
googlenet,4,35,NaN,knife,knife,bw,3875_cl_dnn_bw_knife_40_n03041632_27832.JPEG
googlenet,4,36,NaN,clock,knife,bw,3876_cl_dnn_bw_knife_40_n03041632_6708.JPEG
googlenet,4,37,NaN,knife,knife,bw,3877_cl_dnn_bw_knife_40_n03041632_33739.JPEG
googlenet,4,38,NaN,chair,knife,bw,3878_cl_dnn_bw_knife_40_n03041632_7448.JPEG
googlenet,4,39,NaN,bottle,knife,bw,3879_cl_dnn_bw_knife_40_n03041632_31367.JPEG
googlenet,4,40,NaN,knife,knife,bw,3880_cl_dnn_bw_knife_40_n03041632_8151.JPEG
googlenet,4,41,NaN,keyboard,keyboard,bw,3881_cl_dnn_bw_keyboard_40_n04505470_704.JPEG
googlenet,4,42,NaN,keyboard,keyboard,bw,3882_cl_dnn_bw_keyboard_40_n04505470_5923.JPEG
googlenet,4,43,NaN,keyboard,keyboard,bw,3883_cl_dnn_bw_keyboard_40_n03085013_24402.JPEG
googlenet,4,44,NaN,keyboard,keyboard,bw,3884_cl_dnn_bw_keyboard_40_n04505470_4624.JPEG
googlenet,4,45,NaN,keyboard,keyboard,bw,3885_cl_dnn_bw_keyboard_40_n03085013_5054.JPEG
googlenet,4,46,NaN,keyboard,keyboard,bw,3886_cl_dnn_bw_keyboard_40_n04505470_989.JPEG
googlenet,4,47,NaN,keyboard,keyboard,bw,3887_cl_dnn_bw_keyboard_40_n03085013_2073.JPEG
googlenet,4,48,NaN,keyboard,keyboard,bw,3888_cl_dnn_bw_keyboard_40_n03085013_23221.JPEG
googlenet,4,49,NaN,keyboard,keyboard,bw,3889_cl_dnn_bw_keyboard_40_n04505470_4789.JPEG
googlenet,4,50,NaN,keyboard,keyboard,bw,3890_cl_dnn_bw_keyboard_40_n04505470_292.JPEG
googlenet,4,51,NaN,keyboard,keyboard,bw,3891_cl_dnn_bw_keyboard_40_n04505470_1712.JPEG
googlenet,4,52,NaN,keyboard,keyboard,bw,3892_cl_dnn_bw_keyboard_40_n03085013_7536.JPEG
googlenet,4,53,NaN,keyboard,keyboard,bw,3893_cl_dnn_bw_keyboard_40_n04505470_4362.JPEG
googlenet,4,54,NaN,keyboard,keyboard,bw,3894_cl_dnn_bw_keyboard_40_n03085013_18719.JPEG
googlenet,4,55,NaN,keyboard,keyboard,bw,3895_cl_dnn_bw_keyboard_40_n04505470_6884.JPEG
googlenet,4,56,NaN,keyboard,keyboard,bw,3896_cl_dnn_bw_keyboard_40_n03085013_4053.JPEG
googlenet,4,57,NaN,keyboard,keyboard,bw,3897_cl_dnn_bw_keyboard_40_n03085013_20730.JPEG
googlenet,4,58,NaN,keyboard,keyboard,bw,3898_cl_dnn_bw_keyboard_40_n03085013_24056.JPEG
googlenet,4,59,NaN,keyboard,keyboard,bw,3899_cl_dnn_bw_keyboard_40_n03085013_20330.JPEG
googlenet,4,60,NaN,keyboard,keyboard,bw,3900_cl_dnn_bw_keyboard_40_n03085013_20269.JPEG
googlenet,4,61,NaN,keyboard,keyboard,bw,3901_cl_dnn_bw_keyboard_40_n04505470_3499.JPEG
googlenet,4,62,NaN,keyboard,keyboard,bw,3902_cl_dnn_bw_keyboard_40_n03085013_24192.JPEG
googlenet,4,63,NaN,keyboard,keyboard,bw,3903_cl_dnn_bw_keyboard_40_n04505470_10129.JPEG
googlenet,4,64,NaN,keyboard,keyboard,bw,3904_cl_dnn_bw_keyboard_40_n04505470_7312.JPEG
googlenet,4,65,NaN,keyboard,keyboard,bw,3905_cl_dnn_bw_keyboard_40_n03085013_661.JPEG
googlenet,4,66,NaN,keyboard,keyboard,bw,3906_cl_dnn_bw_keyboard_40_n04505470_6814.JPEG
googlenet,4,67,NaN,keyboard,keyboard,bw,3907_cl_dnn_bw_keyboard_40_n03085013_3119.JPEG
googlenet,4,68,NaN,keyboard,keyboard,bw,3908_cl_dnn_bw_keyboard_40_n03085013_23201.JPEG
googlenet,4,69,NaN,keyboard,keyboard,bw,3909_cl_dnn_bw_keyboard_40_n03085013_18736.JPEG
googlenet,4,70,NaN,keyboard,keyboard,bw,3910_cl_dnn_bw_keyboard_40_n04505470_7728.JPEG
googlenet,4,71,NaN,keyboard,keyboard,bw,3911_cl_dnn_bw_keyboard_40_n03085013_6405.JPEG
googlenet,4,72,NaN,keyboard,keyboard,bw,3912_cl_dnn_bw_keyboard_40_n03085013_15081.JPEG
googlenet,4,73,NaN,keyboard,keyboard,bw,3913_cl_dnn_bw_keyboard_40_n03085013_21981.JPEG
googlenet,4,74,NaN,keyboard,keyboard,bw,3914_cl_dnn_bw_keyboard_40_n03085013_23905.JPEG
googlenet,4,75,NaN,keyboard,keyboard,bw,3915_cl_dnn_bw_keyboard_40_n04505470_9395.JPEG
googlenet,4,76,NaN,keyboard,keyboard,bw,3916_cl_dnn_bw_keyboard_40_n03085013_24028.JPEG
googlenet,4,77,NaN,keyboard,keyboard,bw,3917_cl_dnn_bw_keyboard_40_n04505470_147.JPEG
googlenet,4,78,NaN,keyboard,keyboard,bw,3918_cl_dnn_bw_keyboard_40_n04505470_5131.JPEG
googlenet,4,79,NaN,keyboard,keyboard,bw,3919_cl_dnn_bw_keyboard_40_n03085013_15836.JPEG
googlenet,4,80,NaN,keyboard,keyboard,bw,3920_cl_dnn_bw_keyboard_40_n03085013_7605.JPEG
googlenet,4,81,NaN,elephant,elephant,bw,3921_cl_dnn_bw_elephant_40_n02504458_4143.JPEG
googlenet,4,82,NaN,elephant,elephant,bw,3922_cl_dnn_bw_elephant_40_n02504013_5398.JPEG
googlenet,4,83,NaN,elephant,elephant,bw,3923_cl_dnn_bw_elephant_40_n02504458_7258.JPEG
googlenet,4,84,NaN,elephant,elephant,bw,3924_cl_dnn_bw_elephant_40_n02504458_5824.JPEG
googlenet,4,85,NaN,elephant,elephant,bw,3925_cl_dnn_bw_elephant_40_n02504458_6379.JPEG
googlenet,4,86,NaN,elephant,elephant,bw,3926_cl_dnn_bw_elephant_40_n02504458_3776.JPEG
googlenet,4,87,NaN,elephant,elephant,bw,3927_cl_dnn_bw_elephant_40_n02504013_464.JPEG
googlenet,4,88,NaN,bear,elephant,bw,3928_cl_dnn_bw_elephant_40_n02504458_1715.JPEG
googlenet,4,89,NaN,elephant,elephant,bw,3929_cl_dnn_bw_elephant_40_n02504458_7483.JPEG
googlenet,4,90,NaN,elephant,elephant,bw,3930_cl_dnn_bw_elephant_40_n02504458_4426.JPEG
googlenet,4,91,NaN,elephant,elephant,bw,3931_cl_dnn_bw_elephant_40_n02504458_6479.JPEG
googlenet,4,92,NaN,elephant,elephant,bw,3932_cl_dnn_bw_elephant_40_n02504013_2169.JPEG
googlenet,4,93,NaN,elephant,elephant,bw,3933_cl_dnn_bw_elephant_40_n02504013_618.JPEG
googlenet,4,94,NaN,elephant,elephant,bw,3934_cl_dnn_bw_elephant_40_n02504458_11383.JPEG
googlenet,4,95,NaN,elephant,elephant,bw,3935_cl_dnn_bw_elephant_40_n02504458_2862.JPEG
googlenet,4,96,NaN,elephant,elephant,bw,3936_cl_dnn_bw_elephant_40_n02504013_9618.JPEG
googlenet,4,97,NaN,elephant,elephant,bw,3937_cl_dnn_bw_elephant_40_n02504013_3232.JPEG
googlenet,4,98,NaN,elephant,elephant,bw,3938_cl_dnn_bw_elephant_40_n02504458_11884.JPEG
googlenet,4,99,NaN,chair,elephant,bw,3939_cl_dnn_bw_elephant_40_n02504013_7175.JPEG
googlenet,4,100,NaN,elephant,elephant,bw,3940_cl_dnn_bw_elephant_40_n02504458_6261.JPEG
googlenet,4,101,NaN,elephant,elephant,bw,3941_cl_dnn_bw_elephant_40_n02504458_3228.JPEG
googlenet,4,102,NaN,elephant,elephant,bw,3942_cl_dnn_bw_elephant_40_n02504013_7633.JPEG
googlenet,4,103,NaN,elephant,elephant,bw,3943_cl_dnn_bw_elephant_40_n02504458_1304.JPEG
googlenet,4,104,NaN,boat,elephant,bw,3944_cl_dnn_bw_elephant_40_n02504458_5289.JPEG
googlenet,4,105,NaN,elephant,elephant,bw,3945_cl_dnn_bw_elephant_40_n02504458_133.JPEG
googlenet,4,106,NaN,elephant,elephant,bw,3946_cl_dnn_bw_elephant_40_n02504458_3897.JPEG
googlenet,4,107,NaN,elephant,elephant,bw,3947_cl_dnn_bw_elephant_40_n02504013_5763.JPEG
googlenet,4,108,NaN,elephant,elephant,bw,3948_cl_dnn_bw_elephant_40_n02504458_1512.JPEG
googlenet,4,109,NaN,elephant,elephant,bw,3949_cl_dnn_bw_elephant_40_n02504013_15219.JPEG
googlenet,4,110,NaN,elephant,elephant,bw,3950_cl_dnn_bw_elephant_40_n02504013_6465.JPEG
googlenet,4,111,NaN,elephant,elephant,bw,3951_cl_dnn_bw_elephant_40_n02504458_6583.JPEG
googlenet,4,112,NaN,elephant,elephant,bw,3952_cl_dnn_bw_elephant_40_n02504013_281.JPEG
googlenet,4,113,NaN,elephant,elephant,bw,3953_cl_dnn_bw_elephant_40_n02504013_4005.JPEG
googlenet,4,114,NaN,elephant,elephant,bw,3954_cl_dnn_bw_elephant_40_n02504458_5483.JPEG
googlenet,4,115,NaN,elephant,elephant,bw,3955_cl_dnn_bw_elephant_40_n02504013_4349.JPEG
googlenet,4,116,NaN,elephant,elephant,bw,3956_cl_dnn_bw_elephant_40_n02504013_2446.JPEG
googlenet,4,117,NaN,elephant,elephant,bw,3957_cl_dnn_bw_elephant_40_n02504013_10429.JPEG
googlenet,4,118,NaN,elephant,elephant,bw,3958_cl_dnn_bw_elephant_40_n02504013_23032.JPEG
googlenet,4,119,NaN,elephant,elephant,bw,3959_cl_dnn_bw_elephant_40_n02504013_4339.JPEG
googlenet,4,120,NaN,elephant,elephant,bw,3960_cl_dnn_bw_elephant_40_n02504013_3939.JPEG
googlenet,4,121,NaN,bicycle,bicycle,bw,3961_cl_dnn_bw_bicycle_40_n02835271_307.JPEG
googlenet,4,122,NaN,bicycle,bicycle,bw,3962_cl_dnn_bw_bicycle_40_n03792782_49457.JPEG
googlenet,4,123,NaN,bicycle,bicycle,bw,3963_cl_dnn_bw_bicycle_40_n03792782_10298.JPEG
googlenet,4,124,NaN,bicycle,bicycle,bw,3964_cl_dnn_bw_bicycle_40_n02835271_7326.JPEG
googlenet,4,125,NaN,bicycle,bicycle,bw,3965_cl_dnn_bw_bicycle_40_n03792782_11921.JPEG
googlenet,4,126,NaN,bicycle,bicycle,bw,3966_cl_dnn_bw_bicycle_40_n03792782_7636.JPEG
googlenet,4,127,NaN,bicycle,bicycle,bw,3967_cl_dnn_bw_bicycle_40_n02835271_23624.JPEG
googlenet,4,128,NaN,bicycle,bicycle,bw,3968_cl_dnn_bw_bicycle_40_n03792782_3136.JPEG
googlenet,4,129,NaN,bicycle,bicycle,bw,3969_cl_dnn_bw_bicycle_40_n02835271_9369.JPEG
googlenet,4,130,NaN,bicycle,bicycle,bw,3970_cl_dnn_bw_bicycle_40_n02835271_8170.JPEG
googlenet,4,131,NaN,bicycle,bicycle,bw,3971_cl_dnn_bw_bicycle_40_n03792782_53111.JPEG
googlenet,4,132,NaN,bicycle,bicycle,bw,3972_cl_dnn_bw_bicycle_40_n03792782_9833.JPEG
googlenet,4,133,NaN,bicycle,bicycle,bw,3973_cl_dnn_bw_bicycle_40_n03792782_68319.JPEG
googlenet,4,134,NaN,bicycle,bicycle,bw,3974_cl_dnn_bw_bicycle_40_n03792782_752.JPEG
googlenet,4,135,NaN,bicycle,bicycle,bw,3975_cl_dnn_bw_bicycle_40_n02835271_8965.JPEG
googlenet,4,136,NaN,bicycle,bicycle,bw,3976_cl_dnn_bw_bicycle_40_n02835271_4384.JPEG
googlenet,4,137,NaN,bicycle,bicycle,bw,3977_cl_dnn_bw_bicycle_40_n03792782_693.JPEG
googlenet,4,138,NaN,bicycle,bicycle,bw,3978_cl_dnn_bw_bicycle_40_n03792782_18343.JPEG
googlenet,4,139,NaN,bicycle,bicycle,bw,3979_cl_dnn_bw_bicycle_40_n02835271_18222.JPEG
googlenet,4,140,NaN,bicycle,bicycle,bw,3980_cl_dnn_bw_bicycle_40_n03792782_15.JPEG
googlenet,4,141,NaN,bicycle,bicycle,bw,3981_cl_dnn_bw_bicycle_40_n02835271_13674.JPEG
googlenet,4,142,NaN,bicycle,bicycle,bw,3982_cl_dnn_bw_bicycle_40_n02835271_749.JPEG
googlenet,4,143,NaN,bicycle,bicycle,bw,3983_cl_dnn_bw_bicycle_40_n03792782_16817.JPEG
googlenet,4,144,NaN,bicycle,bicycle,bw,3984_cl_dnn_bw_bicycle_40_n02835271_4246.JPEG
googlenet,4,145,NaN,truck,bicycle,bw,3985_cl_dnn_bw_bicycle_40_n03792782_7975.JPEG
googlenet,4,146,NaN,bicycle,bicycle,bw,3986_cl_dnn_bw_bicycle_40_n02835271_17182.JPEG
googlenet,4,147,NaN,bicycle,bicycle,bw,3987_cl_dnn_bw_bicycle_40_n02835271_64.JPEG
googlenet,4,148,NaN,bicycle,bicycle,bw,3988_cl_dnn_bw_bicycle_40_n02835271_16130.JPEG
googlenet,4,149,NaN,bicycle,bicycle,bw,3989_cl_dnn_bw_bicycle_40_n02835271_14820.JPEG
googlenet,4,150,NaN,bicycle,bicycle,bw,3990_cl_dnn_bw_bicycle_40_n03792782_20387.JPEG
googlenet,4,151,NaN,bicycle,bicycle,bw,3991_cl_dnn_bw_bicycle_40_n03792782_13617.JPEG
googlenet,4,152,NaN,bicycle,bicycle,bw,3992_cl_dnn_bw_bicycle_40_n03792782_20234.JPEG
googlenet,4,153,NaN,bicycle,bicycle,bw,3993_cl_dnn_bw_bicycle_40_n03792782_5040.JPEG
googlenet,4,154,NaN,bicycle,bicycle,bw,3994_cl_dnn_bw_bicycle_40_n02835271_439.JPEG
googlenet,4,155,NaN,bicycle,bicycle,bw,3995_cl_dnn_bw_bicycle_40_n02835271_8399.JPEG
googlenet,4,156,NaN,bicycle,bicycle,bw,3996_cl_dnn_bw_bicycle_40_n03792782_47774.JPEG
googlenet,4,157,NaN,bicycle,bicycle,bw,3997_cl_dnn_bw_bicycle_40_n03792782_10698.JPEG
googlenet,4,158,NaN,bicycle,bicycle,bw,3998_cl_dnn_bw_bicycle_40_n02835271_25966.JPEG
googlenet,4,159,NaN,bicycle,bicycle,bw,3999_cl_dnn_bw_bicycle_40_n03792782_12494.JPEG
googlenet,4,160,NaN,bicycle,bicycle,bw,4000_cl_dnn_bw_bicycle_40_n03792782_8529.JPEG
googlenet,4,161,NaN,airplane,airplane,bw,4001_cl_dnn_bw_airplane_40_n02690373_1928.JPEG
googlenet,4,162,NaN,airplane,airplane,bw,4002_cl_dnn_bw_airplane_40_n02690373_2078.JPEG
googlenet,4,163,NaN,airplane,airplane,bw,4003_cl_dnn_bw_airplane_40_n02690373_4452.JPEG
googlenet,4,164,NaN,airplane,airplane,bw,4004_cl_dnn_bw_airplane_40_n02690373_813.JPEG
googlenet,4,165,NaN,airplane,airplane,bw,4005_cl_dnn_bw_airplane_40_n02690373_7721.JPEG
googlenet,4,166,NaN,airplane,airplane,bw,4006_cl_dnn_bw_airplane_40_n02690373_7908.JPEG
googlenet,4,167,NaN,airplane,airplane,bw,4007_cl_dnn_bw_airplane_40_n02690373_2155.JPEG
googlenet,4,168,NaN,airplane,airplane,bw,4008_cl_dnn_bw_airplane_40_n02690373_19646.JPEG
googlenet,4,169,NaN,airplane,airplane,bw,4009_cl_dnn_bw_airplane_40_n02690373_220.JPEG
googlenet,4,170,NaN,airplane,airplane,bw,4010_cl_dnn_bw_airplane_40_n02690373_9432.JPEG
googlenet,4,171,NaN,airplane,airplane,bw,4011_cl_dnn_bw_airplane_40_n02690373_1051.JPEG
googlenet,4,172,NaN,airplane,airplane,bw,4012_cl_dnn_bw_airplane_40_n02690373_3589.JPEG
googlenet,4,173,NaN,airplane,airplane,bw,4013_cl_dnn_bw_airplane_40_n02690373_1891.JPEG
googlenet,4,174,NaN,airplane,airplane,bw,4014_cl_dnn_bw_airplane_40_n02690373_8925.JPEG
googlenet,4,175,NaN,airplane,airplane,bw,4015_cl_dnn_bw_airplane_40_n02690373_1229.JPEG
googlenet,4,176,NaN,airplane,airplane,bw,4016_cl_dnn_bw_airplane_40_n02690373_8304.JPEG
googlenet,4,177,NaN,airplane,airplane,bw,4017_cl_dnn_bw_airplane_40_n02690373_9813.JPEG
googlenet,4,178,NaN,airplane,airplane,bw,4018_cl_dnn_bw_airplane_40_n02690373_2656.JPEG
googlenet,4,179,NaN,airplane,airplane,bw,4019_cl_dnn_bw_airplane_40_n02690373_614.JPEG
googlenet,4,180,NaN,airplane,airplane,bw,4020_cl_dnn_bw_airplane_40_n02690373_2611.JPEG
googlenet,4,181,NaN,truck,airplane,bw,4021_cl_dnn_bw_airplane_40_n02690373_5465.JPEG
googlenet,4,182,NaN,airplane,airplane,bw,4022_cl_dnn_bw_airplane_40_n02690373_2447.JPEG
googlenet,4,183,NaN,airplane,airplane,bw,4023_cl_dnn_bw_airplane_40_n02690373_9939.JPEG
googlenet,4,184,NaN,airplane,airplane,bw,4024_cl_dnn_bw_airplane_40_n02690373_18412.JPEG
googlenet,4,185,NaN,airplane,airplane,bw,4025_cl_dnn_bw_airplane_40_n02690373_1512.JPEG
googlenet,4,186,NaN,airplane,airplane,bw,4026_cl_dnn_bw_airplane_40_n02690373_6002.JPEG
googlenet,4,187,NaN,airplane,airplane,bw,4027_cl_dnn_bw_airplane_40_n02690373_7200.JPEG
googlenet,4,188,NaN,airplane,airplane,bw,4028_cl_dnn_bw_airplane_40_n02690373_7142.JPEG
googlenet,4,189,NaN,airplane,airplane,bw,4029_cl_dnn_bw_airplane_40_n02690373_8783.JPEG
googlenet,4,190,NaN,airplane,airplane,bw,4030_cl_dnn_bw_airplane_40_n02690373_7614.JPEG
googlenet,4,191,NaN,airplane,airplane,bw,4031_cl_dnn_bw_airplane_40_n02690373_9071.JPEG
googlenet,4,192,NaN,airplane,airplane,bw,4032_cl_dnn_bw_airplane_40_n02690373_3561.JPEG
googlenet,4,193,NaN,airplane,airplane,bw,4033_cl_dnn_bw_airplane_40_n02690373_5003.JPEG
googlenet,4,194,NaN,airplane,airplane,bw,4034_cl_dnn_bw_airplane_40_n02690373_5149.JPEG
googlenet,4,195,NaN,airplane,airplane,bw,4035_cl_dnn_bw_airplane_40_n02690373_18871.JPEG
googlenet,4,196,NaN,airplane,airplane,bw,4036_cl_dnn_bw_airplane_40_n02690373_2750.JPEG
googlenet,4,197,NaN,airplane,airplane,bw,4037_cl_dnn_bw_airplane_40_n02690373_1283.JPEG
googlenet,4,198,NaN,airplane,airplane,bw,4038_cl_dnn_bw_airplane_40_n02690373_7735.JPEG
googlenet,4,199,NaN,airplane,airplane,bw,4039_cl_dnn_bw_airplane_40_n02690373_3928.JPEG
googlenet,4,200,NaN,airplane,airplane,bw,4040_cl_dnn_bw_airplane_40_n02690373_4992.JPEG
googlenet,4,201,NaN,clock,clock,bw,4041_cl_dnn_bw_clock_40_n04548280_3392.JPEG
googlenet,4,202,NaN,clock,clock,bw,4042_cl_dnn_bw_clock_40_n02708093_7765.JPEG
googlenet,4,203,NaN,clock,clock,bw,4043_cl_dnn_bw_clock_40_n03196217_5072.JPEG
googlenet,4,204,NaN,clock,clock,bw,4044_cl_dnn_bw_clock_40_n02708093_2283.JPEG
googlenet,4,205,NaN,clock,clock,bw,4045_cl_dnn_bw_clock_40_n02708093_4722.JPEG
googlenet,4,206,NaN,clock,clock,bw,4046_cl_dnn_bw_clock_40_n04548280_2328.JPEG
googlenet,4,207,NaN,clock,clock,bw,4047_cl_dnn_bw_clock_40_n04548280_4856.JPEG
googlenet,4,208,NaN,clock,clock,bw,4048_cl_dnn_bw_clock_40_n03196217_4009.JPEG
googlenet,4,209,NaN,clock,clock,bw,4049_cl_dnn_bw_clock_40_n04548280_7871.JPEG
googlenet,4,210,NaN,clock,clock,bw,4050_cl_dnn_bw_clock_40_n02708093_2815.JPEG
googlenet,4,211,NaN,clock,clock,bw,4051_cl_dnn_bw_clock_40_n03196217_1814.JPEG
googlenet,4,212,NaN,clock,clock,bw,4052_cl_dnn_bw_clock_40_n04548280_467.JPEG
googlenet,4,213,NaN,clock,clock,bw,4053_cl_dnn_bw_clock_40_n03196217_1984.JPEG
googlenet,4,214,NaN,clock,clock,bw,4054_cl_dnn_bw_clock_40_n04548280_750.JPEG
googlenet,4,215,NaN,clock,clock,bw,4055_cl_dnn_bw_clock_40_n03196217_484.JPEG
googlenet,4,216,NaN,clock,clock,bw,4056_cl_dnn_bw_clock_40_n02708093_3394.JPEG
googlenet,4,217,NaN,clock,clock,bw,4057_cl_dnn_bw_clock_40_n04548280_5017.JPEG
googlenet,4,218,NaN,clock,clock,bw,4058_cl_dnn_bw_clock_40_n04548280_7930.JPEG
googlenet,4,219,NaN,clock,clock,bw,4059_cl_dnn_bw_clock_40_n04548280_8890.JPEG
googlenet,4,220,NaN,clock,clock,bw,4060_cl_dnn_bw_clock_40_n03196217_4915.JPEG
googlenet,4,221,NaN,clock,clock,bw,4061_cl_dnn_bw_clock_40_n03196217_4492.JPEG
googlenet,4,222,NaN,clock,clock,bw,4062_cl_dnn_bw_clock_40_n04548280_21343.JPEG
googlenet,4,223,NaN,clock,clock,bw,4063_cl_dnn_bw_clock_40_n03196217_6752.JPEG
googlenet,4,224,NaN,clock,clock,bw,4064_cl_dnn_bw_clock_40_n03196217_10352.JPEG
googlenet,4,225,NaN,clock,clock,bw,4065_cl_dnn_bw_clock_40_n04548280_9125.JPEG
googlenet,4,226,NaN,clock,clock,bw,4066_cl_dnn_bw_clock_40_n02708093_7257.JPEG
googlenet,4,227,NaN,clock,clock,bw,4067_cl_dnn_bw_clock_40_n04548280_6319.JPEG
googlenet,4,228,NaN,clock,clock,bw,4068_cl_dnn_bw_clock_40_n02708093_670.JPEG
googlenet,4,229,NaN,clock,clock,bw,4069_cl_dnn_bw_clock_40_n04548280_5087.JPEG
googlenet,4,230,NaN,clock,clock,bw,4070_cl_dnn_bw_clock_40_n04548280_3178.JPEG
googlenet,4,231,NaN,clock,clock,bw,4071_cl_dnn_bw_clock_40_n04548280_112.JPEG
googlenet,4,232,NaN,clock,clock,bw,4072_cl_dnn_bw_clock_40_n02708093_3621.JPEG
googlenet,4,233,NaN,clock,clock,bw,4073_cl_dnn_bw_clock_40_n04548280_12670.JPEG
googlenet,4,234,NaN,keyboard,clock,bw,4074_cl_dnn_bw_clock_40_n03196217_2895.JPEG
googlenet,4,235,NaN,clock,clock,bw,4075_cl_dnn_bw_clock_40_n02708093_1923.JPEG
googlenet,4,236,NaN,clock,clock,bw,4076_cl_dnn_bw_clock_40_n03196217_3762.JPEG
googlenet,4,237,NaN,keyboard,clock,bw,4077_cl_dnn_bw_clock_40_n03196217_4879.JPEG
googlenet,4,238,NaN,clock,clock,bw,4078_cl_dnn_bw_clock_40_n04548280_2343.JPEG
googlenet,4,239,NaN,clock,clock,bw,4079_cl_dnn_bw_clock_40_n04548280_23690.JPEG
googlenet,4,240,NaN,clock,clock,bw,4080_cl_dnn_bw_clock_40_n02708093_1125.JPEG
googlenet,4,241,NaN,oven,oven,bw,4081_cl_dnn_bw_oven_40_n04111531_1230.JPEG
googlenet,4,242,NaN,oven,oven,bw,4082_cl_dnn_bw_oven_40_n04111531_20511.JPEG
googlenet,4,243,NaN,oven,oven,bw,4083_cl_dnn_bw_oven_40_n04111531_5204.JPEG
googlenet,4,244,NaN,oven,oven,bw,4084_cl_dnn_bw_oven_40_n04111531_2456.JPEG
googlenet,4,245,NaN,bottle,oven,bw,4085_cl_dnn_bw_oven_40_n04111531_2260.JPEG
googlenet,4,246,NaN,oven,oven,bw,4086_cl_dnn_bw_oven_40_n04111531_14435.JPEG
googlenet,4,247,NaN,oven,oven,bw,4087_cl_dnn_bw_oven_40_n04111531_5776.JPEG
googlenet,4,248,NaN,chair,oven,bw,4088_cl_dnn_bw_oven_40_n04111531_15743.JPEG
googlenet,4,249,NaN,oven,oven,bw,4089_cl_dnn_bw_oven_40_n04111531_14766.JPEG
googlenet,4,250,NaN,chair,oven,bw,4090_cl_dnn_bw_oven_40_n04111531_6217.JPEG
googlenet,4,251,NaN,oven,oven,bw,4091_cl_dnn_bw_oven_40_n04111531_3191.JPEG
googlenet,4,252,NaN,truck,oven,bw,4092_cl_dnn_bw_oven_40_n04111531_3570.JPEG
googlenet,4,253,NaN,oven,oven,bw,4093_cl_dnn_bw_oven_40_n04111531_8235.JPEG
googlenet,4,254,NaN,oven,oven,bw,4094_cl_dnn_bw_oven_40_n04111531_4116.JPEG
googlenet,4,255,NaN,oven,oven,bw,4095_cl_dnn_bw_oven_40_n04111531_7430.JPEG
googlenet,4,256,NaN,oven,oven,bw,4096_cl_dnn_bw_oven_40_n04111531_344.JPEG
googlenet,4,257,NaN,oven,oven,bw,4097_cl_dnn_bw_oven_40_n04111531_7045.JPEG
googlenet,4,258,NaN,oven,oven,bw,4098_cl_dnn_bw_oven_40_n04111531_9424.JPEG
googlenet,4,259,NaN,oven,oven,bw,4099_cl_dnn_bw_oven_40_n04111531_14804.JPEG
googlenet,4,260,NaN,oven,oven,bw,4100_cl_dnn_bw_oven_40_n04111531_7139.JPEG
googlenet,4,261,NaN,oven,oven,bw,4101_cl_dnn_bw_oven_40_n04111531_11279.JPEG
googlenet,4,262,NaN,truck,oven,bw,4102_cl_dnn_bw_oven_40_n04111531_2150.JPEG
googlenet,4,263,NaN,oven,oven,bw,4103_cl_dnn_bw_oven_40_n04111531_4900.JPEG
googlenet,4,264,NaN,oven,oven,bw,4104_cl_dnn_bw_oven_40_n04111531_21911.JPEG
googlenet,4,265,NaN,oven,oven,bw,4105_cl_dnn_bw_oven_40_n04111531_695.JPEG
googlenet,4,266,NaN,oven,oven,bw,4106_cl_dnn_bw_oven_40_n04111531_4148.JPEG
googlenet,4,267,NaN,oven,oven,bw,4107_cl_dnn_bw_oven_40_n04111531_22203.JPEG
googlenet,4,268,NaN,oven,oven,bw,4108_cl_dnn_bw_oven_40_n04111531_114.JPEG
googlenet,4,269,NaN,oven,oven,bw,4109_cl_dnn_bw_oven_40_n04111531_3671.JPEG
googlenet,4,270,NaN,oven,oven,bw,4110_cl_dnn_bw_oven_40_n04111531_9831.JPEG
googlenet,4,271,NaN,clock,oven,bw,4111_cl_dnn_bw_oven_40_n04111531_9702.JPEG
googlenet,4,272,NaN,oven,oven,bw,4112_cl_dnn_bw_oven_40_n04111531_1330.JPEG
googlenet,4,273,NaN,bird,oven,bw,4113_cl_dnn_bw_oven_40_n04111531_11530.JPEG
googlenet,4,274,NaN,oven,oven,bw,4114_cl_dnn_bw_oven_40_n04111531_10710.JPEG
googlenet,4,275,NaN,oven,oven,bw,4115_cl_dnn_bw_oven_40_n04111531_12468.JPEG
googlenet,4,276,NaN,oven,oven,bw,4116_cl_dnn_bw_oven_40_n04111531_23046.JPEG
googlenet,4,277,NaN,oven,oven,bw,4117_cl_dnn_bw_oven_40_n04111531_6958.JPEG
googlenet,4,278,NaN,oven,oven,bw,4118_cl_dnn_bw_oven_40_n04111531_7106.JPEG
googlenet,4,279,NaN,oven,oven,bw,4119_cl_dnn_bw_oven_40_n04111531_21822.JPEG
googlenet,4,280,NaN,oven,oven,bw,4120_cl_dnn_bw_oven_40_n04111531_101.JPEG
googlenet,4,281,NaN,chair,chair,bw,4121_cl_dnn_bw_chair_40_n03376595_874.JPEG
googlenet,4,282,NaN,chair,chair,bw,4122_cl_dnn_bw_chair_40_n02791124_1430.JPEG
googlenet,4,283,NaN,chair,chair,bw,4123_cl_dnn_bw_chair_40_n02791124_4595.JPEG
googlenet,4,284,NaN,chair,chair,bw,4124_cl_dnn_bw_chair_40_n04429376_13448.JPEG
googlenet,4,285,NaN,chair,chair,bw,4125_cl_dnn_bw_chair_40_n04099969_8509.JPEG
googlenet,4,286,NaN,chair,chair,bw,4126_cl_dnn_bw_chair_40_n02791124_6823.JPEG
googlenet,4,287,NaN,chair,chair,bw,4127_cl_dnn_bw_chair_40_n03376595_1861.JPEG
googlenet,4,288,NaN,chair,chair,bw,4128_cl_dnn_bw_chair_40_n04429376_16325.JPEG
googlenet,4,289,NaN,chair,chair,bw,4129_cl_dnn_bw_chair_40_n02791124_3091.JPEG
googlenet,4,290,NaN,chair,chair,bw,4130_cl_dnn_bw_chair_40_n04099969_19966.JPEG
googlenet,4,291,NaN,chair,chair,bw,4131_cl_dnn_bw_chair_40_n04429376_16466.JPEG
googlenet,4,292,NaN,chair,chair,bw,4132_cl_dnn_bw_chair_40_n04429376_50053.JPEG
googlenet,4,293,NaN,chair,chair,bw,4133_cl_dnn_bw_chair_40_n03376595_204.JPEG
googlenet,4,294,NaN,chair,chair,bw,4134_cl_dnn_bw_chair_40_n03376595_54.JPEG
googlenet,4,295,NaN,chair,chair,bw,4135_cl_dnn_bw_chair_40_n02791124_2649.JPEG
googlenet,4,296,NaN,chair,chair,bw,4136_cl_dnn_bw_chair_40_n03376595_8346.JPEG
googlenet,4,297,NaN,chair,chair,bw,4137_cl_dnn_bw_chair_40_n03376595_3654.JPEG
googlenet,4,298,NaN,chair,chair,bw,4138_cl_dnn_bw_chair_40_n02791124_2778.JPEG
googlenet,4,299,NaN,chair,chair,bw,4139_cl_dnn_bw_chair_40_n04429376_14680.JPEG
googlenet,4,300,NaN,chair,chair,bw,4140_cl_dnn_bw_chair_40_n02791124_3116.JPEG
googlenet,4,301,NaN,chair,chair,bw,4141_cl_dnn_bw_chair_40_n03376595_4332.JPEG
googlenet,4,302,NaN,chair,chair,bw,4142_cl_dnn_bw_chair_40_n03376595_3066.JPEG
googlenet,4,303,NaN,chair,chair,bw,4143_cl_dnn_bw_chair_40_n03376595_1024.JPEG
googlenet,4,304,NaN,chair,chair,bw,4144_cl_dnn_bw_chair_40_n04099969_2119.JPEG
googlenet,4,305,NaN,chair,chair,bw,4145_cl_dnn_bw_chair_40_n02791124_6237.JPEG
googlenet,4,306,NaN,chair,chair,bw,4146_cl_dnn_bw_chair_40_n04099969_38032.JPEG
googlenet,4,307,NaN,chair,chair,bw,4147_cl_dnn_bw_chair_40_n02791124_6276.JPEG
googlenet,4,308,NaN,chair,chair,bw,4148_cl_dnn_bw_chair_40_n03376595_3462.JPEG
googlenet,4,309,NaN,chair,chair,bw,4149_cl_dnn_bw_chair_40_n04099969_40812.JPEG
googlenet,4,310,NaN,chair,chair,bw,4150_cl_dnn_bw_chair_40_n03376595_15468.JPEG
googlenet,4,311,NaN,chair,chair,bw,4151_cl_dnn_bw_chair_40_n03376595_3678.JPEG
googlenet,4,312,NaN,chair,chair,bw,4152_cl_dnn_bw_chair_40_n02791124_5812.JPEG
googlenet,4,313,NaN,chair,chair,bw,4153_cl_dnn_bw_chair_40_n02791124_2484.JPEG
googlenet,4,314,NaN,chair,chair,bw,4154_cl_dnn_bw_chair_40_n02791124_6731.JPEG
googlenet,4,315,NaN,chair,chair,bw,4155_cl_dnn_bw_chair_40_n02791124_1145.JPEG
googlenet,4,316,NaN,chair,chair,bw,4156_cl_dnn_bw_chair_40_n03376595_4464.JPEG
googlenet,4,317,NaN,chair,chair,bw,4157_cl_dnn_bw_chair_40_n04429376_3940.JPEG
googlenet,4,318,NaN,chair,chair,bw,4158_cl_dnn_bw_chair_40_n03376595_2107.JPEG
googlenet,4,319,NaN,chair,chair,bw,4159_cl_dnn_bw_chair_40_n04099969_465.JPEG
googlenet,4,320,NaN,chair,chair,bw,4160_cl_dnn_bw_chair_40_n03376595_19041.JPEG
googlenet,4,321,NaN,bear,bear,bw,4161_cl_dnn_bw_bear_40_n02133161_409.JPEG
googlenet,4,322,NaN,bear,bear,bw,4162_cl_dnn_bw_bear_40_n02134084_1230.JPEG
googlenet,4,323,NaN,dog,bear,bw,4163_cl_dnn_bw_bear_40_n02132136_8517.JPEG
googlenet,4,324,NaN,bear,bear,bw,4164_cl_dnn_bw_bear_40_n02133161_4161.JPEG
googlenet,4,325,NaN,bear,bear,bw,4165_cl_dnn_bw_bear_40_n02134084_5281.JPEG
googlenet,4,326,NaN,bear,bear,bw,4166_cl_dnn_bw_bear_40_n02134418_8928.JPEG
googlenet,4,327,NaN,bear,bear,bw,4167_cl_dnn_bw_bear_40_n02133161_713.JPEG
googlenet,4,328,NaN,bear,bear,bw,4168_cl_dnn_bw_bear_40_n02133161_2336.JPEG
googlenet,4,329,NaN,bear,bear,bw,4169_cl_dnn_bw_bear_40_n02134418_4886.JPEG
googlenet,4,330,NaN,bear,bear,bw,4170_cl_dnn_bw_bear_40_n02134418_1459.JPEG
googlenet,4,331,NaN,bear,bear,bw,4171_cl_dnn_bw_bear_40_n02134084_10166.JPEG
googlenet,4,332,NaN,bear,bear,bw,4172_cl_dnn_bw_bear_40_n02134418_5040.JPEG
googlenet,4,333,NaN,bear,bear,bw,4173_cl_dnn_bw_bear_40_n02133161_1222.JPEG
googlenet,4,334,NaN,bear,bear,bw,4174_cl_dnn_bw_bear_40_n02133161_830.JPEG
googlenet,4,335,NaN,dog,bear,bw,4175_cl_dnn_bw_bear_40_n02134418_3232.JPEG
googlenet,4,336,NaN,dog,bear,bw,4176_cl_dnn_bw_bear_40_n02133161_3183.JPEG
googlenet,4,337,NaN,bear,bear,bw,4177_cl_dnn_bw_bear_40_n02132136_1914.JPEG
googlenet,4,338,NaN,bear,bear,bw,4178_cl_dnn_bw_bear_40_n02134418_2013.JPEG
googlenet,4,339,NaN,knife,bear,bw,4179_cl_dnn_bw_bear_40_n02133161_10539.JPEG
googlenet,4,340,NaN,bear,bear,bw,4180_cl_dnn_bw_bear_40_n02134418_73.JPEG
googlenet,4,341,NaN,bear,bear,bw,4181_cl_dnn_bw_bear_40_n02134084_23292.JPEG
googlenet,4,342,NaN,bear,bear,bw,4182_cl_dnn_bw_bear_40_n02134084_23974.JPEG
googlenet,4,343,NaN,bear,bear,bw,4183_cl_dnn_bw_bear_40_n02134084_22801.JPEG
googlenet,4,344,NaN,bear,bear,bw,4184_cl_dnn_bw_bear_40_n02133161_4712.JPEG
googlenet,4,345,NaN,bear,bear,bw,4185_cl_dnn_bw_bear_40_n02134084_7193.JPEG
googlenet,4,346,NaN,bear,bear,bw,4186_cl_dnn_bw_bear_40_n02134418_446.JPEG
googlenet,4,347,NaN,bear,bear,bw,4187_cl_dnn_bw_bear_40_n02134418_3495.JPEG
googlenet,4,348,NaN,bear,bear,bw,4188_cl_dnn_bw_bear_40_n02132136_990.JPEG
googlenet,4,349,NaN,bear,bear,bw,4189_cl_dnn_bw_bear_40_n02132136_12255.JPEG
googlenet,4,350,NaN,bear,bear,bw,4190_cl_dnn_bw_bear_40_n02132136_3329.JPEG
googlenet,4,351,NaN,bear,bear,bw,4191_cl_dnn_bw_bear_40_n02132136_21847.JPEG
googlenet,4,352,NaN,bear,bear,bw,4192_cl_dnn_bw_bear_40_n02132136_6947.JPEG
googlenet,4,353,NaN,bear,bear,bw,4193_cl_dnn_bw_bear_40_n02134418_541.JPEG
googlenet,4,354,NaN,bear,bear,bw,4194_cl_dnn_bw_bear_40_n02133161_10768.JPEG
googlenet,4,355,NaN,bear,bear,bw,4195_cl_dnn_bw_bear_40_n02132136_8077.JPEG
googlenet,4,356,NaN,bear,bear,bw,4196_cl_dnn_bw_bear_40_n02132136_11643.JPEG
googlenet,4,357,NaN,bear,bear,bw,4197_cl_dnn_bw_bear_40_n02134084_8144.JPEG
googlenet,4,358,NaN,bear,bear,bw,4198_cl_dnn_bw_bear_40_n02134418_5535.JPEG
googlenet,4,359,NaN,bear,bear,bw,4199_cl_dnn_bw_bear_40_n02132136_7837.JPEG
googlenet,4,360,NaN,bear,bear,bw,4200_cl_dnn_bw_bear_40_n02134418_4446.JPEG
googlenet,4,361,NaN,boat,boat,bw,4201_cl_dnn_bw_boat_40_n02951358_8346.JPEG
googlenet,4,362,NaN,boat,boat,bw,4202_cl_dnn_bw_boat_40_n03344393_9127.JPEG
googlenet,4,363,NaN,boat,boat,bw,4203_cl_dnn_bw_boat_40_n04273569_22274.JPEG
googlenet,4,364,NaN,boat,boat,bw,4204_cl_dnn_bw_boat_40_n04273569_16501.JPEG
googlenet,4,365,NaN,boat,boat,bw,4205_cl_dnn_bw_boat_40_n02951358_1290.JPEG
googlenet,4,366,NaN,boat,boat,bw,4206_cl_dnn_bw_boat_40_n03344393_11257.JPEG
googlenet,4,367,NaN,boat,boat,bw,4207_cl_dnn_bw_boat_40_n04612504_4495.JPEG
googlenet,4,368,NaN,boat,boat,bw,4208_cl_dnn_bw_boat_40_n04612504_13556.JPEG
googlenet,4,369,NaN,boat,boat,bw,4209_cl_dnn_bw_boat_40_n04612504_23408.JPEG
googlenet,4,370,NaN,boat,boat,bw,4210_cl_dnn_bw_boat_40_n03662601_7027.JPEG
googlenet,4,371,NaN,boat,boat,bw,4211_cl_dnn_bw_boat_40_n03662601_6582.JPEG
googlenet,4,372,NaN,boat,boat,bw,4212_cl_dnn_bw_boat_40_n03344393_5271.JPEG
googlenet,4,373,NaN,boat,boat,bw,4213_cl_dnn_bw_boat_40_n04273569_6048.JPEG
googlenet,4,374,NaN,boat,boat,bw,4214_cl_dnn_bw_boat_40_n02951358_34070.JPEG
googlenet,4,375,NaN,boat,boat,bw,4215_cl_dnn_bw_boat_40_n03662601_273.JPEG
googlenet,4,376,NaN,boat,boat,bw,4216_cl_dnn_bw_boat_40_n03662601_6404.JPEG
googlenet,4,377,NaN,boat,boat,bw,4217_cl_dnn_bw_boat_40_n02951358_1777.JPEG
googlenet,4,378,NaN,boat,boat,bw,4218_cl_dnn_bw_boat_40_n03662601_17156.JPEG
googlenet,4,379,NaN,boat,boat,bw,4219_cl_dnn_bw_boat_40_n03344393_1147.JPEG
googlenet,4,380,NaN,boat,boat,bw,4220_cl_dnn_bw_boat_40_n04612504_10152.JPEG
googlenet,4,381,NaN,boat,boat,bw,4221_cl_dnn_bw_boat_40_n04273569_28348.JPEG
googlenet,4,382,NaN,boat,boat,bw,4222_cl_dnn_bw_boat_40_n03344393_14208.JPEG
googlenet,4,383,NaN,boat,boat,bw,4223_cl_dnn_bw_boat_40_n02951358_4910.JPEG
googlenet,4,384,NaN,boat,boat,bw,4224_cl_dnn_bw_boat_40_n03662601_3336.JPEG
googlenet,4,385,NaN,boat,boat,bw,4225_cl_dnn_bw_boat_40_n03344393_9235.JPEG
googlenet,4,386,NaN,boat,boat,bw,4226_cl_dnn_bw_boat_40_n02951358_11939.JPEG
googlenet,4,387,NaN,boat,boat,bw,4227_cl_dnn_bw_boat_40_n03344393_2838.JPEG
googlenet,4,388,NaN,boat,boat,bw,4228_cl_dnn_bw_boat_40_n04273569_5891.JPEG
googlenet,4,389,NaN,boat,boat,bw,4229_cl_dnn_bw_boat_40_n03344393_4302.JPEG
googlenet,4,390,NaN,boat,boat,bw,4230_cl_dnn_bw_boat_40_n04612504_15807.JPEG
googlenet,4,391,NaN,boat,boat,bw,4231_cl_dnn_bw_boat_40_n04612504_3554.JPEG
googlenet,4,392,NaN,boat,boat,bw,4232_cl_dnn_bw_boat_40_n03344393_3285.JPEG
googlenet,4,393,NaN,boat,boat,bw,4233_cl_dnn_bw_boat_40_n02951358_10138.JPEG
googlenet,4,394,NaN,boat,boat,bw,4234_cl_dnn_bw_boat_40_n02951358_12987.JPEG
googlenet,4,395,NaN,boat,boat,bw,4235_cl_dnn_bw_boat_40_n04612504_3550.JPEG
googlenet,4,396,NaN,boat,boat,bw,4236_cl_dnn_bw_boat_40_n03662601_15001.JPEG
googlenet,4,397,NaN,boat,boat,bw,4237_cl_dnn_bw_boat_40_n02951358_6130.JPEG
googlenet,4,398,NaN,boat,boat,bw,4238_cl_dnn_bw_boat_40_n03344393_12699.JPEG
googlenet,4,399,NaN,boat,boat,bw,4239_cl_dnn_bw_boat_40_n02951358_1116.JPEG
googlenet,4,400,NaN,boat,boat,bw,4240_cl_dnn_bw_boat_40_n02951358_13203.JPEG
googlenet,4,401,NaN,cat,cat,bw,4241_cl_dnn_bw_cat_40_n02123159_93.JPEG
googlenet,4,402,NaN,cat,cat,bw,4242_cl_dnn_bw_cat_40_n02124075_10394.JPEG
googlenet,4,403,NaN,cat,cat,bw,4243_cl_dnn_bw_cat_40_n02123394_8212.JPEG
googlenet,4,404,NaN,dog,cat,bw,4244_cl_dnn_bw_cat_40_n02123045_15835.JPEG
googlenet,4,405,NaN,cat,cat,bw,4245_cl_dnn_bw_cat_40_n02123597_4863.JPEG
googlenet,4,406,NaN,cat,cat,bw,4246_cl_dnn_bw_cat_40_n02125311_31100.JPEG
googlenet,4,407,NaN,cat,cat,bw,4247_cl_dnn_bw_cat_40_n02123045_3754.JPEG
googlenet,4,408,NaN,cat,cat,bw,4248_cl_dnn_bw_cat_40_n02123394_5753.JPEG
googlenet,4,409,NaN,cat,cat,bw,4249_cl_dnn_bw_cat_40_n02123159_8228.JPEG
googlenet,4,410,NaN,cat,cat,bw,4250_cl_dnn_bw_cat_40_n02124075_5391.JPEG
googlenet,4,411,NaN,cat,cat,bw,4251_cl_dnn_bw_cat_40_n02124075_3452.JPEG
googlenet,4,412,NaN,cat,cat,bw,4252_cl_dnn_bw_cat_40_n02125311_2686.JPEG
googlenet,4,413,NaN,cat,cat,bw,4253_cl_dnn_bw_cat_40_n02123159_14084.JPEG
googlenet,4,414,NaN,cat,cat,bw,4254_cl_dnn_bw_cat_40_n02123159_8291.JPEG
googlenet,4,415,NaN,cat,cat,bw,4255_cl_dnn_bw_cat_40_n02123394_50.JPEG
googlenet,4,416,NaN,dog,cat,bw,4256_cl_dnn_bw_cat_40_n02123597_13089.JPEG
googlenet,4,417,NaN,cat,cat,bw,4257_cl_dnn_bw_cat_40_n02123045_4417.JPEG
googlenet,4,418,NaN,cat,cat,bw,4258_cl_dnn_bw_cat_40_n02123394_1632.JPEG
googlenet,4,419,NaN,cat,cat,bw,4259_cl_dnn_bw_cat_40_n02123597_13105.JPEG
googlenet,4,420,NaN,cat,cat,bw,4260_cl_dnn_bw_cat_40_n02123045_8075.JPEG
googlenet,4,421,NaN,cat,cat,bw,4261_cl_dnn_bw_cat_40_n02124075_8368.JPEG
googlenet,4,422,NaN,cat,cat,bw,4262_cl_dnn_bw_cat_40_n02123597_10105.JPEG
googlenet,4,423,NaN,cat,cat,bw,4263_cl_dnn_bw_cat_40_n02124075_12439.JPEG
googlenet,4,424,NaN,cat,cat,bw,4264_cl_dnn_bw_cat_40_n02125311_5425.JPEG
googlenet,4,425,NaN,cat,cat,bw,4265_cl_dnn_bw_cat_40_n02123597_12950.JPEG
googlenet,4,426,NaN,cat,cat,bw,4266_cl_dnn_bw_cat_40_n02123394_7223.JPEG
googlenet,4,427,NaN,cat,cat,bw,4267_cl_dnn_bw_cat_40_n02123597_6370.JPEG
googlenet,4,428,NaN,cat,cat,bw,4268_cl_dnn_bw_cat_40_n02123394_3014.JPEG
googlenet,4,429,NaN,cat,cat,bw,4269_cl_dnn_bw_cat_40_n02123394_4877.JPEG
googlenet,4,430,NaN,cat,cat,bw,4270_cl_dnn_bw_cat_40_n02123394_8524.JPEG
googlenet,4,431,NaN,cat,cat,bw,4271_cl_dnn_bw_cat_40_n02123597_11564.JPEG
googlenet,4,432,NaN,cat,cat,bw,4272_cl_dnn_bw_cat_40_n02123597_8814.JPEG
googlenet,4,433,NaN,cat,cat,bw,4273_cl_dnn_bw_cat_40_n02123045_16899.JPEG
googlenet,4,434,NaN,cat,cat,bw,4274_cl_dnn_bw_cat_40_n02123597_8866.JPEG
googlenet,4,435,NaN,cat,cat,bw,4275_cl_dnn_bw_cat_40_n02125311_34817.JPEG
googlenet,4,436,NaN,cat,cat,bw,4276_cl_dnn_bw_cat_40_n02123159_535.JPEG
googlenet,4,437,NaN,cat,cat,bw,4277_cl_dnn_bw_cat_40_n02125311_55144.JPEG
googlenet,4,438,NaN,cat,cat,bw,4278_cl_dnn_bw_cat_40_n02123597_13632.JPEG
googlenet,4,439,NaN,cat,cat,bw,4279_cl_dnn_bw_cat_40_n02125311_12070.JPEG
googlenet,4,440,NaN,cat,cat,bw,4280_cl_dnn_bw_cat_40_n02124075_4172.JPEG
googlenet,4,441,NaN,bottle,bottle,bw,4281_cl_dnn_bw_bottle_40_n04560804_2586.JPEG
googlenet,4,442,NaN,bottle,bottle,bw,4282_cl_dnn_bw_bottle_40_n04560804_4531.JPEG
googlenet,4,443,NaN,bottle,bottle,bw,4283_cl_dnn_bw_bottle_40_n04591713_3683.JPEG
googlenet,4,444,NaN,bottle,bottle,bw,4284_cl_dnn_bw_bottle_40_n04557648_2456.JPEG
googlenet,4,445,NaN,bottle,bottle,bw,4285_cl_dnn_bw_bottle_40_n03983396_3109.JPEG
googlenet,4,446,NaN,bottle,bottle,bw,4286_cl_dnn_bw_bottle_40_n02823428_1325.JPEG
googlenet,4,447,NaN,car,bottle,bw,4287_cl_dnn_bw_bottle_40_n04591713_3009.JPEG
googlenet,4,448,NaN,bottle,bottle,bw,4288_cl_dnn_bw_bottle_40_n03937543_5167.JPEG
googlenet,4,449,NaN,bottle,bottle,bw,4289_cl_dnn_bw_bottle_40_n04557648_1403.JPEG
googlenet,4,450,NaN,bottle,bottle,bw,4290_cl_dnn_bw_bottle_40_n02823428_376.JPEG
googlenet,4,451,NaN,bottle,bottle,bw,4291_cl_dnn_bw_bottle_40_n03983396_12670.JPEG
googlenet,4,452,NaN,bottle,bottle,bw,4292_cl_dnn_bw_bottle_40_n04591713_3054.JPEG
googlenet,4,453,NaN,bottle,bottle,bw,4293_cl_dnn_bw_bottle_40_n03983396_21228.JPEG
googlenet,4,454,NaN,bottle,bottle,bw,4294_cl_dnn_bw_bottle_40_n04557648_2817.JPEG
googlenet,4,455,NaN,bottle,bottle,bw,4295_cl_dnn_bw_bottle_40_n04591713_7528.JPEG
googlenet,4,456,NaN,bottle,bottle,bw,4296_cl_dnn_bw_bottle_40_n03983396_19006.JPEG
googlenet,4,457,NaN,bottle,bottle,bw,4297_cl_dnn_bw_bottle_40_n04579145_815.JPEG
googlenet,4,458,NaN,bottle,bottle,bw,4298_cl_dnn_bw_bottle_40_n04557648_3875.JPEG
googlenet,4,459,NaN,bottle,bottle,bw,4299_cl_dnn_bw_bottle_40_n02823428_1092.JPEG
googlenet,4,460,NaN,chair,bottle,bw,4300_cl_dnn_bw_bottle_40_n04591713_7007.JPEG
googlenet,4,461,NaN,bottle,bottle,bw,4301_cl_dnn_bw_bottle_40_n03983396_4958.JPEG
googlenet,4,462,NaN,bottle,bottle,bw,4302_cl_dnn_bw_bottle_40_n04591713_3010.JPEG
googlenet,4,463,NaN,bottle,bottle,bw,4303_cl_dnn_bw_bottle_40_n03983396_14917.JPEG
googlenet,4,464,NaN,bottle,bottle,bw,4304_cl_dnn_bw_bottle_40_n02823428_2510.JPEG
googlenet,4,465,NaN,bottle,bottle,bw,4305_cl_dnn_bw_bottle_40_n04557648_2461.JPEG
googlenet,4,466,NaN,bottle,bottle,bw,4306_cl_dnn_bw_bottle_40_n02823428_8786.JPEG
googlenet,4,467,NaN,bottle,bottle,bw,4307_cl_dnn_bw_bottle_40_n03983396_7074.JPEG
googlenet,4,468,NaN,bottle,bottle,bw,4308_cl_dnn_bw_bottle_40_n03937543_227.JPEG
googlenet,4,469,NaN,bottle,bottle,bw,4309_cl_dnn_bw_bottle_40_n04560804_19655.JPEG
googlenet,4,470,NaN,bottle,bottle,bw,4310_cl_dnn_bw_bottle_40_n04591713_2473.JPEG
googlenet,4,471,NaN,bottle,bottle,bw,4311_cl_dnn_bw_bottle_40_n03983396_23516.JPEG
googlenet,4,472,NaN,bottle,bottle,bw,4312_cl_dnn_bw_bottle_40_n04579145_1302.JPEG
googlenet,4,473,NaN,bottle,bottle,bw,4313_cl_dnn_bw_bottle_40_n03983396_8396.JPEG
googlenet,4,474,NaN,bottle,bottle,bw,4314_cl_dnn_bw_bottle_40_n04591713_5501.JPEG
googlenet,4,475,NaN,bottle,bottle,bw,4315_cl_dnn_bw_bottle_40_n04557648_4010.JPEG
googlenet,4,476,NaN,bottle,bottle,bw,4316_cl_dnn_bw_bottle_40_n03937543_1770.JPEG
googlenet,4,477,NaN,bottle,bottle,bw,4317_cl_dnn_bw_bottle_40_n04579145_4078.JPEG
googlenet,4,478,NaN,bottle,bottle,bw,4318_cl_dnn_bw_bottle_40_n04557648_4470.JPEG
googlenet,4,479,NaN,bottle,bottle,bw,4319_cl_dnn_bw_bottle_40_n04591713_1627.JPEG
googlenet,4,480,NaN,bottle,bottle,bw,4320_cl_dnn_bw_bottle_40_n04557648_10744.JPEG
googlenet,4,481,NaN,truck,truck,bw,4321_cl_dnn_bw_truck_40_n03417042_6298.JPEG
googlenet,4,482,NaN,truck,truck,bw,4322_cl_dnn_bw_truck_40_n03796401_6710.JPEG
googlenet,4,483,NaN,truck,truck,bw,4323_cl_dnn_bw_truck_40_n04467665_68923.JPEG
googlenet,4,484,NaN,truck,truck,bw,4324_cl_dnn_bw_truck_40_n03796401_10719.JPEG
googlenet,4,485,NaN,truck,truck,bw,4325_cl_dnn_bw_truck_40_n03417042_1492.JPEG
googlenet,4,486,NaN,truck,truck,bw,4326_cl_dnn_bw_truck_40_n03796401_6774.JPEG
googlenet,4,487,NaN,truck,truck,bw,4327_cl_dnn_bw_truck_40_n03417042_9170.JPEG
googlenet,4,488,NaN,truck,truck,bw,4328_cl_dnn_bw_truck_40_n03417042_3821.JPEG
googlenet,4,489,NaN,truck,truck,bw,4329_cl_dnn_bw_truck_40_n03417042_6247.JPEG
googlenet,4,490,NaN,truck,truck,bw,4330_cl_dnn_bw_truck_40_n03796401_2927.JPEG
googlenet,4,491,NaN,truck,truck,bw,4331_cl_dnn_bw_truck_40_n03796401_1393.JPEG
googlenet,4,492,NaN,truck,truck,bw,4332_cl_dnn_bw_truck_40_n03417042_23784.JPEG
googlenet,4,493,NaN,truck,truck,bw,4333_cl_dnn_bw_truck_40_n03796401_3475.JPEG
googlenet,4,494,NaN,truck,truck,bw,4334_cl_dnn_bw_truck_40_n03796401_5043.JPEG
googlenet,4,495,NaN,truck,truck,bw,4335_cl_dnn_bw_truck_40_n04467665_70509.JPEG
googlenet,4,496,NaN,truck,truck,bw,4336_cl_dnn_bw_truck_40_n04467665_76380.JPEG
googlenet,4,497,NaN,truck,truck,bw,4337_cl_dnn_bw_truck_40_n03417042_6691.JPEG
googlenet,4,498,NaN,truck,truck,bw,4338_cl_dnn_bw_truck_40_n04467665_650.JPEG
googlenet,4,499,NaN,truck,truck,bw,4339_cl_dnn_bw_truck_40_n04467665_33783.JPEG
googlenet,4,500,NaN,truck,truck,bw,4340_cl_dnn_bw_truck_40_n04467665_63645.JPEG
googlenet,4,501,NaN,truck,truck,bw,4341_cl_dnn_bw_truck_40_n03417042_21270.JPEG
googlenet,4,502,NaN,truck,truck,bw,4342_cl_dnn_bw_truck_40_n03417042_5748.JPEG
googlenet,4,503,NaN,truck,truck,bw,4343_cl_dnn_bw_truck_40_n03417042_19355.JPEG
googlenet,4,504,NaN,truck,truck,bw,4344_cl_dnn_bw_truck_40_n03796401_29408.JPEG
googlenet,4,505,NaN,chair,truck,bw,4345_cl_dnn_bw_truck_40_n03417042_12128.JPEG
googlenet,4,506,NaN,truck,truck,bw,4346_cl_dnn_bw_truck_40_n04467665_3040.JPEG
googlenet,4,507,NaN,truck,truck,bw,4347_cl_dnn_bw_truck_40_n03417042_11452.JPEG
googlenet,4,508,NaN,truck,truck,bw,4348_cl_dnn_bw_truck_40_n03417042_10121.JPEG
googlenet,4,509,NaN,truck,truck,bw,4349_cl_dnn_bw_truck_40_n04467665_30189.JPEG
googlenet,4,510,NaN,truck,truck,bw,4350_cl_dnn_bw_truck_40_n03417042_3913.JPEG
googlenet,4,511,NaN,truck,truck,bw,4351_cl_dnn_bw_truck_40_n04467665_3561.JPEG
googlenet,4,512,NaN,elephant,truck,bw,4352_cl_dnn_bw_truck_40_n03417042_16446.JPEG
googlenet,4,513,NaN,truck,truck,bw,4353_cl_dnn_bw_truck_40_n03796401_4094.JPEG
googlenet,4,514,NaN,truck,truck,bw,4354_cl_dnn_bw_truck_40_n03417042_7002.JPEG
googlenet,4,515,NaN,truck,truck,bw,4355_cl_dnn_bw_truck_40_n04467665_49132.JPEG
googlenet,4,516,NaN,truck,truck,bw,4356_cl_dnn_bw_truck_40_n03417042_20736.JPEG
googlenet,4,517,NaN,truck,truck,bw,4357_cl_dnn_bw_truck_40_n03417042_13755.JPEG
googlenet,4,518,NaN,truck,truck,bw,4358_cl_dnn_bw_truck_40_n03796401_322.JPEG
googlenet,4,519,NaN,truck,truck,bw,4359_cl_dnn_bw_truck_40_n03417042_7287.JPEG
googlenet,4,520,NaN,truck,truck,bw,4360_cl_dnn_bw_truck_40_n03417042_18329.JPEG
googlenet,4,521,NaN,car,car,bw,4361_cl_dnn_bw_car_40_n04285008_8699.JPEG
googlenet,4,522,NaN,car,car,bw,4362_cl_dnn_bw_car_40_n02814533_8345.JPEG
googlenet,4,523,NaN,car,car,bw,4363_cl_dnn_bw_car_40_n03100240_5924.JPEG
googlenet,4,524,NaN,car,car,bw,4364_cl_dnn_bw_car_40_n04285008_3007.JPEG
googlenet,4,525,NaN,car,car,bw,4365_cl_dnn_bw_car_40_n04285008_15181.JPEG
googlenet,4,526,NaN,car,car,bw,4366_cl_dnn_bw_car_40_n04285008_757.JPEG
googlenet,4,527,NaN,car,car,bw,4367_cl_dnn_bw_car_40_n02814533_68282.JPEG
googlenet,4,528,NaN,car,car,bw,4368_cl_dnn_bw_car_40_n02814533_75767.JPEG
googlenet,4,529,NaN,car,car,bw,4369_cl_dnn_bw_car_40_n03100240_15672.JPEG
googlenet,4,530,NaN,car,car,bw,4370_cl_dnn_bw_car_40_n02814533_9785.JPEG
googlenet,4,531,NaN,truck,car,bw,4371_cl_dnn_bw_car_40_n04285008_15217.JPEG
googlenet,4,532,NaN,car,car,bw,4372_cl_dnn_bw_car_40_n02814533_3157.JPEG
googlenet,4,533,NaN,car,car,bw,4373_cl_dnn_bw_car_40_n04285008_10832.JPEG
googlenet,4,534,NaN,car,car,bw,4374_cl_dnn_bw_car_40_n03100240_12714.JPEG
googlenet,4,535,NaN,car,car,bw,4375_cl_dnn_bw_car_40_n03100240_1385.JPEG
googlenet,4,536,NaN,car,car,bw,4376_cl_dnn_bw_car_40_n03100240_1140.JPEG
googlenet,4,537,NaN,car,car,bw,4377_cl_dnn_bw_car_40_n02814533_27150.JPEG
googlenet,4,538,NaN,car,car,bw,4378_cl_dnn_bw_car_40_n02814533_10268.JPEG
googlenet,4,539,NaN,car,car,bw,4379_cl_dnn_bw_car_40_n02814533_4121.JPEG
googlenet,4,540,NaN,car,car,bw,4380_cl_dnn_bw_car_40_n02814533_10429.JPEG
googlenet,4,541,NaN,car,car,bw,4381_cl_dnn_bw_car_40_n04285008_2299.JPEG
googlenet,4,542,NaN,car,car,bw,4382_cl_dnn_bw_car_40_n04285008_12484.JPEG
googlenet,4,543,NaN,car,car,bw,4383_cl_dnn_bw_car_40_n03100240_6928.JPEG
googlenet,4,544,NaN,car,car,bw,4384_cl_dnn_bw_car_40_n02814533_35760.JPEG
googlenet,4,545,NaN,car,car,bw,4385_cl_dnn_bw_car_40_n03100240_5118.JPEG
googlenet,4,546,NaN,car,car,bw,4386_cl_dnn_bw_car_40_n02814533_14782.JPEG
googlenet,4,547,NaN,car,car,bw,4387_cl_dnn_bw_car_40_n04285008_13276.JPEG
googlenet,4,548,NaN,car,car,bw,4388_cl_dnn_bw_car_40_n04285008_5559.JPEG
googlenet,4,549,NaN,car,car,bw,4389_cl_dnn_bw_car_40_n02814533_84606.JPEG
googlenet,4,550,NaN,car,car,bw,4390_cl_dnn_bw_car_40_n02814533_84296.JPEG
googlenet,4,551,NaN,airplane,car,bw,4391_cl_dnn_bw_car_40_n03100240_6577.JPEG
googlenet,4,552,NaN,car,car,bw,4392_cl_dnn_bw_car_40_n03100240_9875.JPEG
googlenet,4,553,NaN,car,car,bw,4393_cl_dnn_bw_car_40_n02814533_65294.JPEG
googlenet,4,554,NaN,car,car,bw,4394_cl_dnn_bw_car_40_n04285008_3882.JPEG
googlenet,4,555,NaN,car,car,bw,4395_cl_dnn_bw_car_40_n04285008_2537.JPEG
googlenet,4,556,NaN,car,car,bw,4396_cl_dnn_bw_car_40_n02814533_7247.JPEG
googlenet,4,557,NaN,car,car,bw,4397_cl_dnn_bw_car_40_n03100240_7517.JPEG
googlenet,4,558,NaN,car,car,bw,4398_cl_dnn_bw_car_40_n02814533_10701.JPEG
googlenet,4,559,NaN,car,car,bw,4399_cl_dnn_bw_car_40_n03100240_9634.JPEG
googlenet,4,560,NaN,car,car,bw,4400_cl_dnn_bw_car_40_n03100240_7570.JPEG
googlenet,4,561,NaN,bird,bird,bw,4401_cl_dnn_bw_bird_40_n02051845_9502.JPEG
googlenet,4,562,NaN,bird,bird,bw,4402_cl_dnn_bw_bird_40_n01558993_3803.JPEG
googlenet,4,563,NaN,bird,bird,bw,4403_cl_dnn_bw_bird_40_n01843383_7733.JPEG
googlenet,4,564,NaN,bird,bird,bw,4404_cl_dnn_bw_bird_40_n01616318_1743.JPEG
googlenet,4,565,NaN,bird,bird,bw,4405_cl_dnn_bw_bird_40_n01537544_1859.JPEG
googlenet,4,566,NaN,bird,bird,bw,4406_cl_dnn_bw_bird_40_n02006656_4077.JPEG
googlenet,4,567,NaN,bird,bird,bw,4407_cl_dnn_bw_bird_40_n02018207_7388.JPEG
googlenet,4,568,NaN,bird,bird,bw,4408_cl_dnn_bw_bird_40_n01797886_22135.JPEG
googlenet,4,569,NaN,bird,bird,bw,4409_cl_dnn_bw_bird_40_n02018795_1467.JPEG
googlenet,4,570,NaN,bird,bird,bw,4410_cl_dnn_bw_bird_40_n01833805_9994.JPEG
googlenet,4,571,NaN,bird,bird,bw,4411_cl_dnn_bw_bird_40_n01833805_7852.JPEG
googlenet,4,572,NaN,bottle,bird,bw,4412_cl_dnn_bw_bird_40_n01530575_37650.JPEG
googlenet,4,573,NaN,bird,bird,bw,4413_cl_dnn_bw_bird_40_n02027492_5523.JPEG
googlenet,4,574,NaN,bird,bird,bw,4414_cl_dnn_bw_bird_40_n01860187_177.JPEG
googlenet,4,575,NaN,bird,bird,bw,4415_cl_dnn_bw_bird_40_n02028035_94.JPEG
googlenet,4,576,NaN,bird,bird,bw,4416_cl_dnn_bw_bird_40_n01829413_2997.JPEG
googlenet,4,577,NaN,bird,bird,bw,4417_cl_dnn_bw_bird_40_n01818515_2552.JPEG
googlenet,4,578,NaN,bird,bird,bw,4418_cl_dnn_bw_bird_40_n02037110_9316.JPEG
googlenet,4,579,NaN,bird,bird,bw,4419_cl_dnn_bw_bird_40_n01796340_2767.JPEG
googlenet,4,580,NaN,bird,bird,bw,4420_cl_dnn_bw_bird_40_n01582220_9220.JPEG
googlenet,4,581,NaN,bird,bird,bw,4421_cl_dnn_bw_bird_40_n02002724_5693.JPEG
googlenet,4,582,NaN,dog,bird,bw,4422_cl_dnn_bw_bird_40_n01532829_1537.JPEG
googlenet,4,583,NaN,bird,bird,bw,4423_cl_dnn_bw_bird_40_n02006656_4605.JPEG
googlenet,4,584,NaN,bird,bird,bw,4424_cl_dnn_bw_bird_40_n01795545_14539.JPEG
googlenet,4,585,NaN,bird,bird,bw,4425_cl_dnn_bw_bird_40_n01614925_1396.JPEG
googlenet,4,586,NaN,bird,bird,bw,4426_cl_dnn_bw_bird_40_n01795545_7937.JPEG
googlenet,4,587,NaN,bird,bird,bw,4427_cl_dnn_bw_bird_40_n02009912_6054.JPEG
googlenet,4,588,NaN,chair,bird,bw,4428_cl_dnn_bw_bird_40_n02009912_23077.JPEG
googlenet,4,589,NaN,dog,bird,bw,4429_cl_dnn_bw_bird_40_n01592084_3927.JPEG
googlenet,4,590,NaN,bird,bird,bw,4430_cl_dnn_bw_bird_40_n02011460_315.JPEG
googlenet,4,591,NaN,bird,bird,bw,4431_cl_dnn_bw_bird_40_n01797886_161.JPEG
googlenet,4,592,NaN,bird,bird,bw,4432_cl_dnn_bw_bird_40_n01558993_10153.JPEG
googlenet,4,593,NaN,bird,bird,bw,4433_cl_dnn_bw_bird_40_n01514859_11040.JPEG
googlenet,4,594,NaN,bird,bird,bw,4434_cl_dnn_bw_bird_40_n01820546_7608.JPEG
googlenet,4,595,NaN,bird,bird,bw,4435_cl_dnn_bw_bird_40_n01796340_3495.JPEG
googlenet,4,596,NaN,bird,bird,bw,4436_cl_dnn_bw_bird_40_n01833805_5792.JPEG
googlenet,4,597,NaN,bird,bird,bw,4437_cl_dnn_bw_bird_40_n01795545_3352.JPEG
googlenet,4,598,NaN,bird,bird,bw,4438_cl_dnn_bw_bird_40_n01820546_4561.JPEG
googlenet,4,599,NaN,bird,bird,bw,4439_cl_dnn_bw_bird_40_n02017213_12047.JPEG
googlenet,4,600,NaN,bird,bird,bw,4440_cl_dnn_bw_bird_40_n01796340_315.JPEG
googlenet,4,601,NaN,dog,dog,bw,4441_cl_dnn_bw_dog_40_n02088238_86.JPEG
googlenet,4,602,NaN,dog,dog,bw,4442_cl_dnn_bw_dog_40_n02086910_16438.JPEG
googlenet,4,603,NaN,dog,dog,bw,4443_cl_dnn_bw_dog_40_n02089973_1878.JPEG
googlenet,4,604,NaN,dog,dog,bw,4444_cl_dnn_bw_dog_40_n02097047_551.JPEG
googlenet,4,605,NaN,dog,dog,bw,4445_cl_dnn_bw_dog_40_n02102480_6180.JPEG
googlenet,4,606,NaN,dog,dog,bw,4446_cl_dnn_bw_dog_40_n02100236_6217.JPEG
googlenet,4,607,NaN,dog,dog,bw,4447_cl_dnn_bw_dog_40_n02113624_1245.JPEG
googlenet,4,608,NaN,dog,dog,bw,4448_cl_dnn_bw_dog_40_n02112706_2924.JPEG
googlenet,4,609,NaN,dog,dog,bw,4449_cl_dnn_bw_dog_40_n02091831_2944.JPEG
googlenet,4,610,NaN,dog,dog,bw,4450_cl_dnn_bw_dog_40_n02106662_19970.JPEG
googlenet,4,611,NaN,dog,dog,bw,4451_cl_dnn_bw_dog_40_n02105641_8809.JPEG
googlenet,4,612,NaN,dog,dog,bw,4452_cl_dnn_bw_dog_40_n02112350_598.JPEG
googlenet,4,613,NaN,dog,dog,bw,4453_cl_dnn_bw_dog_40_n02099267_4485.JPEG
googlenet,4,614,NaN,dog,dog,bw,4454_cl_dnn_bw_dog_40_n02107574_6171.JPEG
googlenet,4,615,NaN,dog,dog,bw,4455_cl_dnn_bw_dog_40_n02096585_7597.JPEG
googlenet,4,616,NaN,dog,dog,bw,4456_cl_dnn_bw_dog_40_n02091635_2305.JPEG
googlenet,4,617,NaN,dog,dog,bw,4457_cl_dnn_bw_dog_40_n02111129_6505.JPEG
googlenet,4,618,NaN,dog,dog,bw,4458_cl_dnn_bw_dog_40_n02093754_1077.JPEG
googlenet,4,619,NaN,dog,dog,bw,4459_cl_dnn_bw_dog_40_n02092339_8008.JPEG
googlenet,4,620,NaN,dog,dog,bw,4460_cl_dnn_bw_dog_40_n02091635_6573.JPEG
googlenet,4,621,NaN,dog,dog,bw,4461_cl_dnn_bw_dog_40_n02102040_3562.JPEG
googlenet,4,622,NaN,dog,dog,bw,4462_cl_dnn_bw_dog_40_n02113978_5061.JPEG
googlenet,4,623,NaN,dog,dog,bw,4463_cl_dnn_bw_dog_40_n02106662_8283.JPEG
googlenet,4,624,NaN,dog,dog,bw,4464_cl_dnn_bw_dog_40_n02097047_3630.JPEG
googlenet,4,625,NaN,dog,dog,bw,4465_cl_dnn_bw_dog_40_n02109525_547.JPEG
googlenet,4,626,NaN,dog,dog,bw,4466_cl_dnn_bw_dog_40_n02101388_9902.JPEG
googlenet,4,627,NaN,chair,dog,bw,4467_cl_dnn_bw_dog_40_n02099429_1043.JPEG
googlenet,4,628,NaN,dog,dog,bw,4468_cl_dnn_bw_dog_40_n02108422_5922.JPEG
googlenet,4,629,NaN,dog,dog,bw,4469_cl_dnn_bw_dog_40_n02087046_18069.JPEG
googlenet,4,630,NaN,dog,dog,bw,4470_cl_dnn_bw_dog_40_n02087394_25921.JPEG
googlenet,4,631,NaN,dog,dog,bw,4471_cl_dnn_bw_dog_40_n02091831_343.JPEG
googlenet,4,632,NaN,dog,dog,bw,4472_cl_dnn_bw_dog_40_n02100236_5437.JPEG
googlenet,4,633,NaN,dog,dog,bw,4473_cl_dnn_bw_dog_40_n02109047_35222.JPEG
googlenet,4,634,NaN,dog,dog,bw,4474_cl_dnn_bw_dog_40_n02086079_14359.JPEG
googlenet,4,635,NaN,dog,dog,bw,4475_cl_dnn_bw_dog_40_n02093647_665.JPEG
googlenet,4,636,NaN,dog,dog,bw,4476_cl_dnn_bw_dog_40_n02110958_13126.JPEG
googlenet,4,637,NaN,dog,dog,bw,4477_cl_dnn_bw_dog_40_n02088466_4727.JPEG
googlenet,4,638,NaN,dog,dog,bw,4478_cl_dnn_bw_dog_40_n02094258_5294.JPEG
googlenet,4,639,NaN,dog,dog,bw,4479_cl_dnn_bw_dog_40_n02108000_7440.JPEG
googlenet,4,640,NaN,dog,dog,bw,4480_cl_dnn_bw_dog_40_n02093991_3054.JPEG
googlenet,4,641,NaN,knife,knife,cr,4481_cl_dnn_cr_knife_40_n03041632_9963.JPEG
googlenet,4,642,NaN,oven,knife,cr,4482_cl_dnn_cr_knife_40_n03041632_84869.JPEG
googlenet,4,643,NaN,knife,knife,cr,4483_cl_dnn_cr_knife_40_n03041632_101553.JPEG
googlenet,4,644,NaN,knife,knife,cr,4484_cl_dnn_cr_knife_40_n03041632_62810.JPEG
googlenet,4,645,NaN,knife,knife,cr,4485_cl_dnn_cr_knife_40_n03041632_1006.JPEG
googlenet,4,646,NaN,knife,knife,cr,4486_cl_dnn_cr_knife_40_n03041632_22570.JPEG
googlenet,4,647,NaN,knife,knife,cr,4487_cl_dnn_cr_knife_40_n03041632_26405.JPEG
googlenet,4,648,NaN,knife,knife,cr,4488_cl_dnn_cr_knife_40_n03041632_86118.JPEG
googlenet,4,649,NaN,knife,knife,cr,4489_cl_dnn_cr_knife_40_n03041632_25603.JPEG
googlenet,4,650,NaN,knife,knife,cr,4490_cl_dnn_cr_knife_40_n03041632_10109.JPEG
googlenet,4,651,NaN,knife,knife,cr,4491_cl_dnn_cr_knife_40_n03041632_49570.JPEG
googlenet,4,652,NaN,knife,knife,cr,4492_cl_dnn_cr_knife_40_n03041632_2630.JPEG
googlenet,4,653,NaN,bird,knife,cr,4493_cl_dnn_cr_knife_40_n03041632_2483.JPEG
googlenet,4,654,NaN,knife,knife,cr,4494_cl_dnn_cr_knife_40_n03041632_31849.JPEG
googlenet,4,655,NaN,knife,knife,cr,4495_cl_dnn_cr_knife_40_n03041632_32896.JPEG
googlenet,4,656,NaN,knife,knife,cr,4496_cl_dnn_cr_knife_40_n03041632_3247.JPEG
googlenet,4,657,NaN,knife,knife,cr,4497_cl_dnn_cr_knife_40_n03041632_17859.JPEG
googlenet,4,658,NaN,chair,knife,cr,4498_cl_dnn_cr_knife_40_n03041632_31037.JPEG
googlenet,4,659,NaN,knife,knife,cr,4499_cl_dnn_cr_knife_40_n03041632_30666.JPEG
googlenet,4,660,NaN,knife,knife,cr,4500_cl_dnn_cr_knife_40_n03041632_7832.JPEG
googlenet,4,661,NaN,knife,knife,cr,4501_cl_dnn_cr_knife_40_n03041632_22472.JPEG
googlenet,4,662,NaN,knife,knife,cr,4502_cl_dnn_cr_knife_40_n03041632_13465.JPEG
googlenet,4,663,NaN,knife,knife,cr,4503_cl_dnn_cr_knife_40_n03041632_18304.JPEG
googlenet,4,664,NaN,knife,knife,cr,4504_cl_dnn_cr_knife_40_n03041632_30248.JPEG
googlenet,4,665,NaN,knife,knife,cr,4505_cl_dnn_cr_knife_40_n03041632_424.JPEG
googlenet,4,666,NaN,dog,knife,cr,4506_cl_dnn_cr_knife_40_n03041632_18748.JPEG
googlenet,4,667,NaN,knife,knife,cr,4507_cl_dnn_cr_knife_40_n03041632_19571.JPEG
googlenet,4,668,NaN,chair,knife,cr,4508_cl_dnn_cr_knife_40_n03041632_11700.JPEG
googlenet,4,669,NaN,knife,knife,cr,4509_cl_dnn_cr_knife_40_n03041632_42841.JPEG
googlenet,4,670,NaN,knife,knife,cr,4510_cl_dnn_cr_knife_40_n03041632_25656.JPEG
googlenet,4,671,NaN,knife,knife,cr,4511_cl_dnn_cr_knife_40_n03041632_18236.JPEG
googlenet,4,672,NaN,chair,knife,cr,4512_cl_dnn_cr_knife_40_n03041632_52371.JPEG
googlenet,4,673,NaN,knife,knife,cr,4513_cl_dnn_cr_knife_40_n03041632_33255.JPEG
googlenet,4,674,NaN,knife,knife,cr,4514_cl_dnn_cr_knife_40_n03041632_8563.JPEG
googlenet,4,675,NaN,knife,knife,cr,4515_cl_dnn_cr_knife_40_n03041632_379.JPEG
googlenet,4,676,NaN,knife,knife,cr,4516_cl_dnn_cr_knife_40_n03041632_86783.JPEG
googlenet,4,677,NaN,knife,knife,cr,4517_cl_dnn_cr_knife_40_n03041632_5727.JPEG
googlenet,4,678,NaN,knife,knife,cr,4518_cl_dnn_cr_knife_40_n03041632_14293.JPEG
googlenet,4,679,NaN,knife,knife,cr,4519_cl_dnn_cr_knife_40_n03041632_19620.JPEG
googlenet,4,680,NaN,knife,knife,cr,4520_cl_dnn_cr_knife_40_n03041632_41493.JPEG
googlenet,4,681,NaN,keyboard,keyboard,cr,4521_cl_dnn_cr_keyboard_40_n03085013_23594.JPEG
googlenet,4,682,NaN,keyboard,keyboard,cr,4522_cl_dnn_cr_keyboard_40_n03085013_15365.JPEG
googlenet,4,683,NaN,bottle,keyboard,cr,4523_cl_dnn_cr_keyboard_40_n04505470_326.JPEG
googlenet,4,684,NaN,keyboard,keyboard,cr,4524_cl_dnn_cr_keyboard_40_n03085013_15779.JPEG
googlenet,4,685,NaN,keyboard,keyboard,cr,4525_cl_dnn_cr_keyboard_40_n03085013_6963.JPEG
googlenet,4,686,NaN,keyboard,keyboard,cr,4526_cl_dnn_cr_keyboard_40_n03085013_1129.JPEG
googlenet,4,687,NaN,keyboard,keyboard,cr,4527_cl_dnn_cr_keyboard_40_n03085013_21914.JPEG
googlenet,4,688,NaN,keyboard,keyboard,cr,4528_cl_dnn_cr_keyboard_40_n03085013_18788.JPEG
googlenet,4,689,NaN,keyboard,keyboard,cr,4529_cl_dnn_cr_keyboard_40_n04505470_206.JPEG
googlenet,4,690,NaN,keyboard,keyboard,cr,4530_cl_dnn_cr_keyboard_40_n03085013_19065.JPEG
googlenet,4,691,NaN,keyboard,keyboard,cr,4531_cl_dnn_cr_keyboard_40_n04505470_1371.JPEG
googlenet,4,692,NaN,keyboard,keyboard,cr,4532_cl_dnn_cr_keyboard_40_n03085013_19471.JPEG
googlenet,4,693,NaN,keyboard,keyboard,cr,4533_cl_dnn_cr_keyboard_40_n03085013_22067.JPEG
googlenet,4,694,NaN,keyboard,keyboard,cr,4534_cl_dnn_cr_keyboard_40_n03085013_23022.JPEG
googlenet,4,695,NaN,keyboard,keyboard,cr,4535_cl_dnn_cr_keyboard_40_n03085013_21243.JPEG
googlenet,4,696,NaN,keyboard,keyboard,cr,4536_cl_dnn_cr_keyboard_40_n03085013_24078.JPEG
googlenet,4,697,NaN,keyboard,keyboard,cr,4537_cl_dnn_cr_keyboard_40_n04505470_2608.JPEG
googlenet,4,698,NaN,keyboard,keyboard,cr,4538_cl_dnn_cr_keyboard_40_n04505470_9469.JPEG
googlenet,4,699,NaN,keyboard,keyboard,cr,4539_cl_dnn_cr_keyboard_40_n03085013_7382.JPEG
googlenet,4,700,NaN,keyboard,keyboard,cr,4540_cl_dnn_cr_keyboard_40_n03085013_19581.JPEG
googlenet,4,701,NaN,keyboard,keyboard,cr,4541_cl_dnn_cr_keyboard_40_n03085013_20597.JPEG
googlenet,4,702,NaN,keyboard,keyboard,cr,4542_cl_dnn_cr_keyboard_40_n04505470_6426.JPEG
googlenet,4,703,NaN,keyboard,keyboard,cr,4543_cl_dnn_cr_keyboard_40_n04505470_2595.JPEG
googlenet,4,704,NaN,keyboard,keyboard,cr,4544_cl_dnn_cr_keyboard_40_n03085013_20594.JPEG
googlenet,4,705,NaN,keyboard,keyboard,cr,4545_cl_dnn_cr_keyboard_40_n03085013_18968.JPEG
googlenet,4,706,NaN,keyboard,keyboard,cr,4546_cl_dnn_cr_keyboard_40_n03085013_20801.JPEG
googlenet,4,707,NaN,keyboard,keyboard,cr,4547_cl_dnn_cr_keyboard_40_n03085013_22996.JPEG
googlenet,4,708,NaN,keyboard,keyboard,cr,4548_cl_dnn_cr_keyboard_40_n03085013_17035.JPEG
googlenet,4,709,NaN,keyboard,keyboard,cr,4549_cl_dnn_cr_keyboard_40_n03085013_25066.JPEG
googlenet,4,710,NaN,keyboard,keyboard,cr,4550_cl_dnn_cr_keyboard_40_n04505470_6682.JPEG
googlenet,4,711,NaN,keyboard,keyboard,cr,4551_cl_dnn_cr_keyboard_40_n03085013_19916.JPEG
googlenet,4,712,NaN,keyboard,keyboard,cr,4552_cl_dnn_cr_keyboard_40_n04505470_4535.JPEG
googlenet,4,713,NaN,keyboard,keyboard,cr,4553_cl_dnn_cr_keyboard_40_n04505470_1076.JPEG
googlenet,4,714,NaN,keyboard,keyboard,cr,4554_cl_dnn_cr_keyboard_40_n04505470_3941.JPEG
googlenet,4,715,NaN,keyboard,keyboard,cr,4555_cl_dnn_cr_keyboard_40_n03085013_24538.JPEG
googlenet,4,716,NaN,keyboard,keyboard,cr,4556_cl_dnn_cr_keyboard_40_n03085013_7780.JPEG
googlenet,4,717,NaN,keyboard,keyboard,cr,4557_cl_dnn_cr_keyboard_40_n04505470_4543.JPEG
googlenet,4,718,NaN,keyboard,keyboard,cr,4558_cl_dnn_cr_keyboard_40_n03085013_19303.JPEG
googlenet,4,719,NaN,keyboard,keyboard,cr,4559_cl_dnn_cr_keyboard_40_n03085013_34973.JPEG
googlenet,4,720,NaN,keyboard,keyboard,cr,4560_cl_dnn_cr_keyboard_40_n03085013_24577.JPEG
googlenet,4,721,NaN,elephant,elephant,cr,4561_cl_dnn_cr_elephant_40_n02504458_7817.JPEG
googlenet,4,722,NaN,elephant,elephant,cr,4562_cl_dnn_cr_elephant_40_n02504458_7841.JPEG
googlenet,4,723,NaN,elephant,elephant,cr,4563_cl_dnn_cr_elephant_40_n02504458_8340.JPEG
googlenet,4,724,NaN,elephant,elephant,cr,4564_cl_dnn_cr_elephant_40_n02504013_10462.JPEG
googlenet,4,725,NaN,elephant,elephant,cr,4565_cl_dnn_cr_elephant_40_n02504458_1092.JPEG
googlenet,4,726,NaN,elephant,elephant,cr,4566_cl_dnn_cr_elephant_40_n02504013_7390.JPEG
googlenet,4,727,NaN,elephant,elephant,cr,4567_cl_dnn_cr_elephant_40_n02504458_2944.JPEG
googlenet,4,728,NaN,elephant,elephant,cr,4568_cl_dnn_cr_elephant_40_n02504013_6078.JPEG
googlenet,4,729,NaN,elephant,elephant,cr,4569_cl_dnn_cr_elephant_40_n02504013_10303.JPEG
googlenet,4,730,NaN,elephant,elephant,cr,4570_cl_dnn_cr_elephant_40_n02504013_6461.JPEG
googlenet,4,731,NaN,elephant,elephant,cr,4571_cl_dnn_cr_elephant_40_n02504458_3521.JPEG
googlenet,4,732,NaN,elephant,elephant,cr,4572_cl_dnn_cr_elephant_40_n02504458_13406.JPEG
googlenet,4,733,NaN,elephant,elephant,cr,4573_cl_dnn_cr_elephant_40_n02504458_3437.JPEG
googlenet,4,734,NaN,elephant,elephant,cr,4574_cl_dnn_cr_elephant_40_n02504013_6575.JPEG
googlenet,4,735,NaN,elephant,elephant,cr,4575_cl_dnn_cr_elephant_40_n02504013_10920.JPEG
googlenet,4,736,NaN,elephant,elephant,cr,4576_cl_dnn_cr_elephant_40_n02504013_1855.JPEG
googlenet,4,737,NaN,elephant,elephant,cr,4577_cl_dnn_cr_elephant_40_n02504013_1533.JPEG
googlenet,4,738,NaN,elephant,elephant,cr,4578_cl_dnn_cr_elephant_40_n02504458_3608.JPEG
googlenet,4,739,NaN,elephant,elephant,cr,4579_cl_dnn_cr_elephant_40_n02504013_7001.JPEG
googlenet,4,740,NaN,elephant,elephant,cr,4580_cl_dnn_cr_elephant_40_n02504458_9354.JPEG
googlenet,4,741,NaN,elephant,elephant,cr,4581_cl_dnn_cr_elephant_40_n02504013_730.JPEG
googlenet,4,742,NaN,elephant,elephant,cr,4582_cl_dnn_cr_elephant_40_n02504458_410.JPEG
googlenet,4,743,NaN,elephant,elephant,cr,4583_cl_dnn_cr_elephant_40_n02504013_6413.JPEG
googlenet,4,744,NaN,elephant,elephant,cr,4584_cl_dnn_cr_elephant_40_n02504458_3118.JPEG
googlenet,4,745,NaN,elephant,elephant,cr,4585_cl_dnn_cr_elephant_40_n02504013_6714.JPEG
googlenet,4,746,NaN,elephant,elephant,cr,4586_cl_dnn_cr_elephant_40_n02504013_6058.JPEG
googlenet,4,747,NaN,elephant,elephant,cr,4587_cl_dnn_cr_elephant_40_n02504013_2149.JPEG
googlenet,4,748,NaN,elephant,elephant,cr,4588_cl_dnn_cr_elephant_40_n02504458_5331.JPEG
googlenet,4,749,NaN,elephant,elephant,cr,4589_cl_dnn_cr_elephant_40_n02504013_4573.JPEG
googlenet,4,750,NaN,elephant,elephant,cr,4590_cl_dnn_cr_elephant_40_n02504458_4248.JPEG
googlenet,4,751,NaN,elephant,elephant,cr,4591_cl_dnn_cr_elephant_40_n02504013_10802.JPEG
googlenet,4,752,NaN,elephant,elephant,cr,4592_cl_dnn_cr_elephant_40_n02504458_1929.JPEG
googlenet,4,753,NaN,elephant,elephant,cr,4593_cl_dnn_cr_elephant_40_n02504458_7016.JPEG
googlenet,4,754,NaN,elephant,elephant,cr,4594_cl_dnn_cr_elephant_40_n02504013_7497.JPEG
googlenet,4,755,NaN,elephant,elephant,cr,4595_cl_dnn_cr_elephant_40_n02504013_21311.JPEG
googlenet,4,756,NaN,elephant,elephant,cr,4596_cl_dnn_cr_elephant_40_n02504458_3248.JPEG
googlenet,4,757,NaN,elephant,elephant,cr,4597_cl_dnn_cr_elephant_40_n02504013_8926.JPEG
googlenet,4,758,NaN,elephant,elephant,cr,4598_cl_dnn_cr_elephant_40_n02504013_4373.JPEG
googlenet,4,759,NaN,elephant,elephant,cr,4599_cl_dnn_cr_elephant_40_n02504013_9476.JPEG
googlenet,4,760,NaN,elephant,elephant,cr,4600_cl_dnn_cr_elephant_40_n02504458_2339.JPEG
googlenet,4,761,NaN,bicycle,bicycle,cr,4601_cl_dnn_cr_bicycle_40_n02835271_18173.JPEG
googlenet,4,762,NaN,bicycle,bicycle,cr,4602_cl_dnn_cr_bicycle_40_n03792782_16896.JPEG
googlenet,4,763,NaN,bicycle,bicycle,cr,4603_cl_dnn_cr_bicycle_40_n03792782_4403.JPEG
googlenet,4,764,NaN,bicycle,bicycle,cr,4604_cl_dnn_cr_bicycle_40_n03792782_2959.JPEG
googlenet,4,765,NaN,bicycle,bicycle,cr,4605_cl_dnn_cr_bicycle_40_n03792782_7475.JPEG
googlenet,4,766,NaN,bicycle,bicycle,cr,4606_cl_dnn_cr_bicycle_40_n03792782_11481.JPEG
googlenet,4,767,NaN,bicycle,bicycle,cr,4607_cl_dnn_cr_bicycle_40_n02835271_6779.JPEG
googlenet,4,768,NaN,bicycle,bicycle,cr,4608_cl_dnn_cr_bicycle_40_n02835271_2885.JPEG
googlenet,4,769,NaN,bicycle,bicycle,cr,4609_cl_dnn_cr_bicycle_40_n02835271_7945.JPEG
googlenet,4,770,NaN,bicycle,bicycle,cr,4610_cl_dnn_cr_bicycle_40_n02835271_24.JPEG
googlenet,4,771,NaN,bicycle,bicycle,cr,4611_cl_dnn_cr_bicycle_40_n03792782_50972.JPEG
googlenet,4,772,NaN,bicycle,bicycle,cr,4612_cl_dnn_cr_bicycle_40_n02835271_664.JPEG
googlenet,4,773,NaN,bicycle,bicycle,cr,4613_cl_dnn_cr_bicycle_40_n02835271_1311.JPEG
googlenet,4,774,NaN,bicycle,bicycle,cr,4614_cl_dnn_cr_bicycle_40_n03792782_3637.JPEG
googlenet,4,775,NaN,bicycle,bicycle,cr,4615_cl_dnn_cr_bicycle_40_n03792782_8184.JPEG
googlenet,4,776,NaN,bicycle,bicycle,cr,4616_cl_dnn_cr_bicycle_40_n03792782_6546.JPEG
googlenet,4,777,NaN,bicycle,bicycle,cr,4617_cl_dnn_cr_bicycle_40_n02835271_6147.JPEG
googlenet,4,778,NaN,bicycle,bicycle,cr,4618_cl_dnn_cr_bicycle_40_n02835271_3285.JPEG
googlenet,4,779,NaN,bicycle,bicycle,cr,4619_cl_dnn_cr_bicycle_40_n03792782_1833.JPEG
googlenet,4,780,NaN,bicycle,bicycle,cr,4620_cl_dnn_cr_bicycle_40_n03792782_10490.JPEG
googlenet,4,781,NaN,bicycle,bicycle,cr,4621_cl_dnn_cr_bicycle_40_n02835271_12656.JPEG
googlenet,4,782,NaN,bicycle,bicycle,cr,4622_cl_dnn_cr_bicycle_40_n03792782_28300.JPEG
googlenet,4,783,NaN,bicycle,bicycle,cr,4623_cl_dnn_cr_bicycle_40_n03792782_16122.JPEG
googlenet,4,784,NaN,bicycle,bicycle,cr,4624_cl_dnn_cr_bicycle_40_n02835271_7096.JPEG
googlenet,4,785,NaN,bicycle,bicycle,cr,4625_cl_dnn_cr_bicycle_40_n03792782_12273.JPEG
googlenet,4,786,NaN,bicycle,bicycle,cr,4626_cl_dnn_cr_bicycle_40_n02835271_27014.JPEG
googlenet,4,787,NaN,bicycle,bicycle,cr,4627_cl_dnn_cr_bicycle_40_n02835271_7311.JPEG
googlenet,4,788,NaN,bicycle,bicycle,cr,4628_cl_dnn_cr_bicycle_40_n02835271_269.JPEG
googlenet,4,789,NaN,bicycle,bicycle,cr,4629_cl_dnn_cr_bicycle_40_n02835271_4730.JPEG
googlenet,4,790,NaN,bicycle,bicycle,cr,4630_cl_dnn_cr_bicycle_40_n03792782_8080.JPEG
googlenet,4,791,NaN,bicycle,bicycle,cr,4631_cl_dnn_cr_bicycle_40_n03792782_2701.JPEG
googlenet,4,792,NaN,bicycle,bicycle,cr,4632_cl_dnn_cr_bicycle_40_n03792782_10876.JPEG
googlenet,4,793,NaN,bicycle,bicycle,cr,4633_cl_dnn_cr_bicycle_40_n03792782_7678.JPEG
googlenet,4,794,NaN,bicycle,bicycle,cr,4634_cl_dnn_cr_bicycle_40_n03792782_1989.JPEG
googlenet,4,795,NaN,bicycle,bicycle,cr,4635_cl_dnn_cr_bicycle_40_n03792782_68259.JPEG
googlenet,4,796,NaN,bicycle,bicycle,cr,4636_cl_dnn_cr_bicycle_40_n02835271_10293.JPEG
googlenet,4,797,NaN,bicycle,bicycle,cr,4637_cl_dnn_cr_bicycle_40_n03792782_5602.JPEG
googlenet,4,798,NaN,bicycle,bicycle,cr,4638_cl_dnn_cr_bicycle_40_n03792782_7787.JPEG
googlenet,4,799,NaN,bicycle,bicycle,cr,4639_cl_dnn_cr_bicycle_40_n03792782_2960.JPEG
googlenet,4,800,NaN,truck,bicycle,cr,4640_cl_dnn_cr_bicycle_40_n02835271_9807.JPEG
googlenet,4,801,NaN,airplane,airplane,cr,4641_cl_dnn_cr_airplane_40_n02690373_18460.JPEG
googlenet,4,802,NaN,airplane,airplane,cr,4642_cl_dnn_cr_airplane_40_n02690373_2042.JPEG
googlenet,4,803,NaN,airplane,airplane,cr,4643_cl_dnn_cr_airplane_40_n02690373_1950.JPEG
googlenet,4,804,NaN,airplane,airplane,cr,4644_cl_dnn_cr_airplane_40_n02690373_2865.JPEG
googlenet,4,805,NaN,airplane,airplane,cr,4645_cl_dnn_cr_airplane_40_n02690373_13078.JPEG
googlenet,4,806,NaN,airplane,airplane,cr,4646_cl_dnn_cr_airplane_40_n02690373_3150.JPEG
googlenet,4,807,NaN,airplane,airplane,cr,4647_cl_dnn_cr_airplane_40_n02690373_2217.JPEG
googlenet,4,808,NaN,airplane,airplane,cr,4648_cl_dnn_cr_airplane_40_n02690373_8446.JPEG
googlenet,4,809,NaN,airplane,airplane,cr,4649_cl_dnn_cr_airplane_40_n02690373_349.JPEG
googlenet,4,810,NaN,airplane,airplane,cr,4650_cl_dnn_cr_airplane_40_n02690373_13585.JPEG
googlenet,4,811,NaN,airplane,airplane,cr,4651_cl_dnn_cr_airplane_40_n02690373_60.JPEG
googlenet,4,812,NaN,airplane,airplane,cr,4652_cl_dnn_cr_airplane_40_n02690373_9425.JPEG
googlenet,4,813,NaN,airplane,airplane,cr,4653_cl_dnn_cr_airplane_40_n02690373_6978.JPEG
googlenet,4,814,NaN,airplane,airplane,cr,4654_cl_dnn_cr_airplane_40_n02690373_3712.JPEG
googlenet,4,815,NaN,airplane,airplane,cr,4655_cl_dnn_cr_airplane_40_n02690373_10061.JPEG
googlenet,4,816,NaN,airplane,airplane,cr,4656_cl_dnn_cr_airplane_40_n02690373_4465.JPEG
googlenet,4,817,NaN,airplane,airplane,cr,4657_cl_dnn_cr_airplane_40_n02690373_6803.JPEG
googlenet,4,818,NaN,airplane,airplane,cr,4658_cl_dnn_cr_airplane_40_n02690373_2584.JPEG
googlenet,4,819,NaN,airplane,airplane,cr,4659_cl_dnn_cr_airplane_40_n02690373_17011.JPEG
googlenet,4,820,NaN,airplane,airplane,cr,4660_cl_dnn_cr_airplane_40_n02690373_17044.JPEG
googlenet,4,821,NaN,airplane,airplane,cr,4661_cl_dnn_cr_airplane_40_n02690373_1663.JPEG
googlenet,4,822,NaN,airplane,airplane,cr,4662_cl_dnn_cr_airplane_40_n02690373_9218.JPEG
googlenet,4,823,NaN,airplane,airplane,cr,4663_cl_dnn_cr_airplane_40_n02690373_871.JPEG
googlenet,4,824,NaN,airplane,airplane,cr,4664_cl_dnn_cr_airplane_40_n02690373_5430.JPEG
googlenet,4,825,NaN,airplane,airplane,cr,4665_cl_dnn_cr_airplane_40_n02690373_2564.JPEG
googlenet,4,826,NaN,airplane,airplane,cr,4666_cl_dnn_cr_airplane_40_n02690373_10704.JPEG
googlenet,4,827,NaN,airplane,airplane,cr,4667_cl_dnn_cr_airplane_40_n02690373_3827.JPEG
googlenet,4,828,NaN,airplane,airplane,cr,4668_cl_dnn_cr_airplane_40_n02690373_5015.JPEG
googlenet,4,829,NaN,airplane,airplane,cr,4669_cl_dnn_cr_airplane_40_n02690373_863.JPEG
googlenet,4,830,NaN,airplane,airplane,cr,4670_cl_dnn_cr_airplane_40_n02690373_5845.JPEG
googlenet,4,831,NaN,airplane,airplane,cr,4671_cl_dnn_cr_airplane_40_n02690373_6534.JPEG
googlenet,4,832,NaN,airplane,airplane,cr,4672_cl_dnn_cr_airplane_40_n02690373_4586.JPEG
googlenet,4,833,NaN,airplane,airplane,cr,4673_cl_dnn_cr_airplane_40_n02690373_8454.JPEG
googlenet,4,834,NaN,airplane,airplane,cr,4674_cl_dnn_cr_airplane_40_n02690373_243.JPEG
googlenet,4,835,NaN,airplane,airplane,cr,4675_cl_dnn_cr_airplane_40_n02690373_10402.JPEG
googlenet,4,836,NaN,airplane,airplane,cr,4676_cl_dnn_cr_airplane_40_n02690373_9759.JPEG
googlenet,4,837,NaN,airplane,airplane,cr,4677_cl_dnn_cr_airplane_40_n02690373_2131.JPEG
googlenet,4,838,NaN,airplane,airplane,cr,4678_cl_dnn_cr_airplane_40_n02690373_3511.JPEG
googlenet,4,839,NaN,airplane,airplane,cr,4679_cl_dnn_cr_airplane_40_n02690373_4269.JPEG
googlenet,4,840,NaN,airplane,airplane,cr,4680_cl_dnn_cr_airplane_40_n02690373_10769.JPEG
googlenet,4,841,NaN,clock,clock,cr,4681_cl_dnn_cr_clock_40_n02708093_3360.JPEG
googlenet,4,842,NaN,clock,clock,cr,4682_cl_dnn_cr_clock_40_n02708093_6731.JPEG
googlenet,4,843,NaN,clock,clock,cr,4683_cl_dnn_cr_clock_40_n02708093_3624.JPEG
googlenet,4,844,NaN,clock,clock,cr,4684_cl_dnn_cr_clock_40_n04548280_280.JPEG
googlenet,4,845,NaN,clock,clock,cr,4685_cl_dnn_cr_clock_40_n04548280_6361.JPEG
googlenet,4,846,NaN,bottle,clock,cr,4686_cl_dnn_cr_clock_40_n02708093_434.JPEG
googlenet,4,847,NaN,clock,clock,cr,4687_cl_dnn_cr_clock_40_n04548280_2260.JPEG
googlenet,4,848,NaN,clock,clock,cr,4688_cl_dnn_cr_clock_40_n02708093_6657.JPEG
googlenet,4,849,NaN,clock,clock,cr,4689_cl_dnn_cr_clock_40_n02708093_5734.JPEG
googlenet,4,850,NaN,clock,clock,cr,4690_cl_dnn_cr_clock_40_n03196217_3605.JPEG
googlenet,4,851,NaN,clock,clock,cr,4691_cl_dnn_cr_clock_40_n04548280_1274.JPEG
googlenet,4,852,NaN,clock,clock,cr,4692_cl_dnn_cr_clock_40_n04548280_3301.JPEG
googlenet,4,853,NaN,clock,clock,cr,4693_cl_dnn_cr_clock_40_n04548280_8037.JPEG
googlenet,4,854,NaN,clock,clock,cr,4694_cl_dnn_cr_clock_40_n02708093_3399.JPEG
googlenet,4,855,NaN,chair,clock,cr,4695_cl_dnn_cr_clock_40_n02708093_3262.JPEG
googlenet,4,856,NaN,clock,clock,cr,4696_cl_dnn_cr_clock_40_n03196217_5995.JPEG
googlenet,4,857,NaN,clock,clock,cr,4697_cl_dnn_cr_clock_40_n03196217_3645.JPEG
googlenet,4,858,NaN,clock,clock,cr,4698_cl_dnn_cr_clock_40_n02708093_3625.JPEG
googlenet,4,859,NaN,clock,clock,cr,4699_cl_dnn_cr_clock_40_n02708093_3146.JPEG
googlenet,4,860,NaN,clock,clock,cr,4700_cl_dnn_cr_clock_40_n02708093_2482.JPEG
googlenet,4,861,NaN,clock,clock,cr,4701_cl_dnn_cr_clock_40_n03196217_7808.JPEG
googlenet,4,862,NaN,clock,clock,cr,4702_cl_dnn_cr_clock_40_n04548280_10184.JPEG
googlenet,4,863,NaN,clock,clock,cr,4703_cl_dnn_cr_clock_40_n03196217_3518.JPEG
googlenet,4,864,NaN,clock,clock,cr,4704_cl_dnn_cr_clock_40_n04548280_5557.JPEG
googlenet,4,865,NaN,clock,clock,cr,4705_cl_dnn_cr_clock_40_n03196217_3343.JPEG
googlenet,4,866,NaN,clock,clock,cr,4706_cl_dnn_cr_clock_40_n02708093_1746.JPEG
googlenet,4,867,NaN,clock,clock,cr,4707_cl_dnn_cr_clock_40_n02708093_8204.JPEG
googlenet,4,868,NaN,clock,clock,cr,4708_cl_dnn_cr_clock_40_n04548280_7792.JPEG
googlenet,4,869,NaN,clock,clock,cr,4709_cl_dnn_cr_clock_40_n03196217_3006.JPEG
googlenet,4,870,NaN,clock,clock,cr,4710_cl_dnn_cr_clock_40_n04548280_4721.JPEG
googlenet,4,871,NaN,clock,clock,cr,4711_cl_dnn_cr_clock_40_n04548280_8591.JPEG
googlenet,4,872,NaN,clock,clock,cr,4712_cl_dnn_cr_clock_40_n04548280_8748.JPEG
googlenet,4,873,NaN,clock,clock,cr,4713_cl_dnn_cr_clock_40_n04548280_7243.JPEG
googlenet,4,874,NaN,clock,clock,cr,4714_cl_dnn_cr_clock_40_n04548280_4073.JPEG
googlenet,4,875,NaN,clock,clock,cr,4715_cl_dnn_cr_clock_40_n03196217_2128.JPEG
googlenet,4,876,NaN,clock,clock,cr,4716_cl_dnn_cr_clock_40_n04548280_2535.JPEG
googlenet,4,877,NaN,clock,clock,cr,4717_cl_dnn_cr_clock_40_n04548280_5327.JPEG
googlenet,4,878,NaN,clock,clock,cr,4718_cl_dnn_cr_clock_40_n02708093_5.JPEG
googlenet,4,879,NaN,clock,clock,cr,4719_cl_dnn_cr_clock_40_n02708093_2800.JPEG
googlenet,4,880,NaN,clock,clock,cr,4720_cl_dnn_cr_clock_40_n04548280_8657.JPEG
googlenet,4,881,NaN,oven,oven,cr,4721_cl_dnn_cr_oven_40_n04111531_4.JPEG
googlenet,4,882,NaN,oven,oven,cr,4722_cl_dnn_cr_oven_40_n04111531_4901.JPEG
googlenet,4,883,NaN,oven,oven,cr,4723_cl_dnn_cr_oven_40_n04111531_164.JPEG
googlenet,4,884,NaN,truck,oven,cr,4724_cl_dnn_cr_oven_40_n04111531_15296.JPEG
googlenet,4,885,NaN,oven,oven,cr,4725_cl_dnn_cr_oven_40_n04111531_24096.JPEG
googlenet,4,886,NaN,chair,oven,cr,4726_cl_dnn_cr_oven_40_n04111531_7329.JPEG
googlenet,4,887,NaN,oven,oven,cr,4727_cl_dnn_cr_oven_40_n04111531_6567.JPEG
googlenet,4,888,NaN,oven,oven,cr,4728_cl_dnn_cr_oven_40_n04111531_6204.JPEG
googlenet,4,889,NaN,oven,oven,cr,4729_cl_dnn_cr_oven_40_n04111531_14959.JPEG
googlenet,4,890,NaN,oven,oven,cr,4730_cl_dnn_cr_oven_40_n04111531_2930.JPEG
googlenet,4,891,NaN,oven,oven,cr,4731_cl_dnn_cr_oven_40_n04111531_4749.JPEG
googlenet,4,892,NaN,dog,oven,cr,4732_cl_dnn_cr_oven_40_n04111531_14126.JPEG
googlenet,4,893,NaN,oven,oven,cr,4733_cl_dnn_cr_oven_40_n04111531_22466.JPEG
googlenet,4,894,NaN,oven,oven,cr,4734_cl_dnn_cr_oven_40_n04111531_10102.JPEG
googlenet,4,895,NaN,oven,oven,cr,4735_cl_dnn_cr_oven_40_n04111531_12980.JPEG
googlenet,4,896,NaN,oven,oven,cr,4736_cl_dnn_cr_oven_40_n04111531_7338.JPEG
googlenet,4,897,NaN,oven,oven,cr,4737_cl_dnn_cr_oven_40_n04111531_6695.JPEG
googlenet,4,898,NaN,oven,oven,cr,4738_cl_dnn_cr_oven_40_n04111531_704.JPEG
googlenet,4,899,NaN,oven,oven,cr,4739_cl_dnn_cr_oven_40_n04111531_8077.JPEG
googlenet,4,900,NaN,oven,oven,cr,4740_cl_dnn_cr_oven_40_n04111531_17576.JPEG
googlenet,4,901,NaN,oven,oven,cr,4741_cl_dnn_cr_oven_40_n04111531_3976.JPEG
googlenet,4,902,NaN,oven,oven,cr,4742_cl_dnn_cr_oven_40_n04111531_3099.JPEG
googlenet,4,903,NaN,oven,oven,cr,4743_cl_dnn_cr_oven_40_n04111531_11709.JPEG
googlenet,4,904,NaN,oven,oven,cr,4744_cl_dnn_cr_oven_40_n04111531_2023.JPEG
googlenet,4,905,NaN,oven,oven,cr,4745_cl_dnn_cr_oven_40_n04111531_14871.JPEG
googlenet,4,906,NaN,oven,oven,cr,4746_cl_dnn_cr_oven_40_n04111531_4585.JPEG
googlenet,4,907,NaN,oven,oven,cr,4747_cl_dnn_cr_oven_40_n04111531_22445.JPEG
googlenet,4,908,NaN,oven,oven,cr,4748_cl_dnn_cr_oven_40_n04111531_11265.JPEG
googlenet,4,909,NaN,oven,oven,cr,4749_cl_dnn_cr_oven_40_n04111531_8350.JPEG
googlenet,4,910,NaN,oven,oven,cr,4750_cl_dnn_cr_oven_40_n04111531_7923.JPEG
googlenet,4,911,NaN,oven,oven,cr,4751_cl_dnn_cr_oven_40_n04111531_1128.JPEG
googlenet,4,912,NaN,oven,oven,cr,4752_cl_dnn_cr_oven_40_n04111531_3689.JPEG
googlenet,4,913,NaN,oven,oven,cr,4753_cl_dnn_cr_oven_40_n04111531_10446.JPEG
googlenet,4,914,NaN,oven,oven,cr,4754_cl_dnn_cr_oven_40_n04111531_2937.JPEG
googlenet,4,915,NaN,oven,oven,cr,4755_cl_dnn_cr_oven_40_n04111531_1303.JPEG
googlenet,4,916,NaN,oven,oven,cr,4756_cl_dnn_cr_oven_40_n04111531_10802.JPEG
googlenet,4,917,NaN,truck,oven,cr,4757_cl_dnn_cr_oven_40_n04111531_1211.JPEG
googlenet,4,918,NaN,oven,oven,cr,4758_cl_dnn_cr_oven_40_n04111531_1708.JPEG
googlenet,4,919,NaN,oven,oven,cr,4759_cl_dnn_cr_oven_40_n04111531_4562.JPEG
googlenet,4,920,NaN,oven,oven,cr,4760_cl_dnn_cr_oven_40_n04111531_5336.JPEG
googlenet,4,921,NaN,chair,chair,cr,4761_cl_dnn_cr_chair_40_n04429376_27777.JPEG
googlenet,4,922,NaN,chair,chair,cr,4762_cl_dnn_cr_chair_40_n04429376_17319.JPEG
googlenet,4,923,NaN,chair,chair,cr,4763_cl_dnn_cr_chair_40_n02791124_15756.JPEG
googlenet,4,924,NaN,chair,chair,cr,4764_cl_dnn_cr_chair_40_n03376595_18522.JPEG
googlenet,4,925,NaN,chair,chair,cr,4765_cl_dnn_cr_chair_40_n03376595_6939.JPEG
googlenet,4,926,NaN,chair,chair,cr,4766_cl_dnn_cr_chair_40_n04429376_2693.JPEG
googlenet,4,927,NaN,chair,chair,cr,4767_cl_dnn_cr_chair_40_n02791124_3241.JPEG
googlenet,4,928,NaN,chair,chair,cr,4768_cl_dnn_cr_chair_40_n04099969_31891.JPEG
googlenet,4,929,NaN,chair,chair,cr,4769_cl_dnn_cr_chair_40_n03376595_16197.JPEG
googlenet,4,930,NaN,chair,chair,cr,4770_cl_dnn_cr_chair_40_n02791124_57.JPEG
googlenet,4,931,NaN,chair,chair,cr,4771_cl_dnn_cr_chair_40_n04099969_4298.JPEG
googlenet,4,932,NaN,chair,chair,cr,4772_cl_dnn_cr_chair_40_n02791124_2150.JPEG
googlenet,4,933,NaN,boat,chair,cr,4773_cl_dnn_cr_chair_40_n04429376_30142.JPEG
googlenet,4,934,NaN,chair,chair,cr,4774_cl_dnn_cr_chair_40_n02791124_9831.JPEG
googlenet,4,935,NaN,chair,chair,cr,4775_cl_dnn_cr_chair_40_n02791124_3259.JPEG
googlenet,4,936,NaN,chair,chair,cr,4776_cl_dnn_cr_chair_40_n04099969_15780.JPEG
googlenet,4,937,NaN,chair,chair,cr,4777_cl_dnn_cr_chair_40_n03376595_6073.JPEG
googlenet,4,938,NaN,chair,chair,cr,4778_cl_dnn_cr_chair_40_n04099969_16266.JPEG
googlenet,4,939,NaN,chair,chair,cr,4779_cl_dnn_cr_chair_40_n02791124_2602.JPEG
googlenet,4,940,NaN,chair,chair,cr,4780_cl_dnn_cr_chair_40_n04429376_8921.JPEG
googlenet,4,941,NaN,chair,chair,cr,4781_cl_dnn_cr_chair_40_n04099969_2020.JPEG
googlenet,4,942,NaN,chair,chair,cr,4782_cl_dnn_cr_chair_40_n04099969_5577.JPEG
googlenet,4,943,NaN,chair,chair,cr,4783_cl_dnn_cr_chair_40_n04429376_20764.JPEG
googlenet,4,944,NaN,chair,chair,cr,4784_cl_dnn_cr_chair_40_n04429376_19175.JPEG
googlenet,4,945,NaN,chair,chair,cr,4785_cl_dnn_cr_chair_40_n04429376_16955.JPEG
googlenet,4,946,NaN,chair,chair,cr,4786_cl_dnn_cr_chair_40_n02791124_670.JPEG
googlenet,4,947,NaN,chair,chair,cr,4787_cl_dnn_cr_chair_40_n03376595_6721.JPEG
googlenet,4,948,NaN,chair,chair,cr,4788_cl_dnn_cr_chair_40_n04429376_16358.JPEG
googlenet,4,949,NaN,chair,chair,cr,4789_cl_dnn_cr_chair_40_n04099969_31959.JPEG
googlenet,4,950,NaN,chair,chair,cr,4790_cl_dnn_cr_chair_40_n04099969_2620.JPEG
googlenet,4,951,NaN,chair,chair,cr,4791_cl_dnn_cr_chair_40_n03376595_4190.JPEG
googlenet,4,952,NaN,chair,chair,cr,4792_cl_dnn_cr_chair_40_n04099969_2374.JPEG
googlenet,4,953,NaN,chair,chair,cr,4793_cl_dnn_cr_chair_40_n04429376_18606.JPEG
googlenet,4,954,NaN,chair,chair,cr,4794_cl_dnn_cr_chair_40_n04099969_15645.JPEG
googlenet,4,955,NaN,chair,chair,cr,4795_cl_dnn_cr_chair_40_n04429376_12212.JPEG
googlenet,4,956,NaN,bottle,chair,cr,4796_cl_dnn_cr_chair_40_n04099969_12940.JPEG
googlenet,4,957,NaN,chair,chair,cr,4797_cl_dnn_cr_chair_40_n04429376_10922.JPEG
googlenet,4,958,NaN,chair,chair,cr,4798_cl_dnn_cr_chair_40_n04429376_10247.JPEG
googlenet,4,959,NaN,chair,chair,cr,4799_cl_dnn_cr_chair_40_n03376595_1824.JPEG
googlenet,4,960,NaN,chair,chair,cr,4800_cl_dnn_cr_chair_40_n04099969_22551.JPEG
googlenet,4,961,NaN,bear,bear,cr,4801_cl_dnn_cr_bear_40_n02132136_7980.JPEG
googlenet,4,962,NaN,bear,bear,cr,4802_cl_dnn_cr_bear_40_n02134418_1798.JPEG
googlenet,4,963,NaN,dog,bear,cr,4803_cl_dnn_cr_bear_40_n02134084_22032.JPEG
googlenet,4,964,NaN,bear,bear,cr,4804_cl_dnn_cr_bear_40_n02134418_2574.JPEG
googlenet,4,965,NaN,bear,bear,cr,4805_cl_dnn_cr_bear_40_n02134084_433.JPEG
googlenet,4,966,NaN,bear,bear,cr,4806_cl_dnn_cr_bear_40_n02132136_2096.JPEG
googlenet,4,967,NaN,bear,bear,cr,4807_cl_dnn_cr_bear_40_n02134418_7580.JPEG
googlenet,4,968,NaN,bear,bear,cr,4808_cl_dnn_cr_bear_40_n02134084_1363.JPEG
googlenet,4,969,NaN,bear,bear,cr,4809_cl_dnn_cr_bear_40_n02133161_5681.JPEG
googlenet,4,970,NaN,bear,bear,cr,4810_cl_dnn_cr_bear_40_n02132136_1076.JPEG
googlenet,4,971,NaN,bear,bear,cr,4811_cl_dnn_cr_bear_40_n02132136_33437.JPEG
googlenet,4,972,NaN,bear,bear,cr,4812_cl_dnn_cr_bear_40_n02133161_2209.JPEG
googlenet,4,973,NaN,bear,bear,cr,4813_cl_dnn_cr_bear_40_n02133161_574.JPEG
googlenet,4,974,NaN,bear,bear,cr,4814_cl_dnn_cr_bear_40_n02134084_8859.JPEG
googlenet,4,975,NaN,bear,bear,cr,4815_cl_dnn_cr_bear_40_n02134084_167.JPEG
googlenet,4,976,NaN,bear,bear,cr,4816_cl_dnn_cr_bear_40_n02133161_693.JPEG
googlenet,4,977,NaN,bear,bear,cr,4817_cl_dnn_cr_bear_40_n02134418_3585.JPEG
googlenet,4,978,NaN,bear,bear,cr,4818_cl_dnn_cr_bear_40_n02132136_2978.JPEG
googlenet,4,979,NaN,bear,bear,cr,4819_cl_dnn_cr_bear_40_n02134418_4059.JPEG
googlenet,4,980,NaN,bear,bear,cr,4820_cl_dnn_cr_bear_40_n02133161_13375.JPEG
googlenet,4,981,NaN,bear,bear,cr,4821_cl_dnn_cr_bear_40_n02132136_2813.JPEG
googlenet,4,982,NaN,bear,bear,cr,4822_cl_dnn_cr_bear_40_n02133161_10928.JPEG
googlenet,4,983,NaN,bear,bear,cr,4823_cl_dnn_cr_bear_40_n02132136_2364.JPEG
googlenet,4,984,NaN,bear,bear,cr,4824_cl_dnn_cr_bear_40_n02133161_8493.JPEG
googlenet,4,985,NaN,bear,bear,cr,4825_cl_dnn_cr_bear_40_n02133161_575.JPEG
googlenet,4,986,NaN,bear,bear,cr,4826_cl_dnn_cr_bear_40_n02134084_18952.JPEG
googlenet,4,987,NaN,bear,bear,cr,4827_cl_dnn_cr_bear_40_n02134418_11557.JPEG
googlenet,4,988,NaN,bear,bear,cr,4828_cl_dnn_cr_bear_40_n02134418_4685.JPEG
googlenet,4,989,NaN,bear,bear,cr,4829_cl_dnn_cr_bear_40_n02132136_29760.JPEG
googlenet,4,990,NaN,bear,bear,cr,4830_cl_dnn_cr_bear_40_n02134084_11303.JPEG
googlenet,4,991,NaN,bear,bear,cr,4831_cl_dnn_cr_bear_40_n02133161_6008.JPEG
googlenet,4,992,NaN,bear,bear,cr,4832_cl_dnn_cr_bear_40_n02134418_4303.JPEG
googlenet,4,993,NaN,bear,bear,cr,4833_cl_dnn_cr_bear_40_n02133161_6860.JPEG
googlenet,4,994,NaN,bear,bear,cr,4834_cl_dnn_cr_bear_40_n02133161_6394.JPEG
googlenet,4,995,NaN,bear,bear,cr,4835_cl_dnn_cr_bear_40_n02134084_6214.JPEG
googlenet,4,996,NaN,bear,bear,cr,4836_cl_dnn_cr_bear_40_n02133161_656.JPEG
googlenet,4,997,NaN,bear,bear,cr,4837_cl_dnn_cr_bear_40_n02134418_3346.JPEG
googlenet,4,998,NaN,bear,bear,cr,4838_cl_dnn_cr_bear_40_n02134084_13922.JPEG
googlenet,4,999,NaN,bear,bear,cr,4839_cl_dnn_cr_bear_40_n02132136_8619.JPEG
googlenet,4,1000,NaN,bear,bear,cr,4840_cl_dnn_cr_bear_40_n02132136_9199.JPEG
googlenet,4,1001,NaN,boat,boat,cr,4841_cl_dnn_cr_boat_40_n03662601_17785.JPEG
googlenet,4,1002,NaN,boat,boat,cr,4842_cl_dnn_cr_boat_40_n04612504_33406.JPEG
googlenet,4,1003,NaN,boat,boat,cr,4843_cl_dnn_cr_boat_40_n04273569_3897.JPEG
googlenet,4,1004,NaN,boat,boat,cr,4844_cl_dnn_cr_boat_40_n03662601_12265.JPEG
googlenet,4,1005,NaN,boat,boat,cr,4845_cl_dnn_cr_boat_40_n03344393_15744.JPEG
googlenet,4,1006,NaN,boat,boat,cr,4846_cl_dnn_cr_boat_40_n03662601_11926.JPEG
googlenet,4,1007,NaN,boat,boat,cr,4847_cl_dnn_cr_boat_40_n03662601_25461.JPEG
googlenet,4,1008,NaN,boat,boat,cr,4848_cl_dnn_cr_boat_40_n03662601_6975.JPEG
googlenet,4,1009,NaN,boat,boat,cr,4849_cl_dnn_cr_boat_40_n04273569_6150.JPEG
googlenet,4,1010,NaN,boat,boat,cr,4850_cl_dnn_cr_boat_40_n04273569_9387.JPEG
googlenet,4,1011,NaN,boat,boat,cr,4851_cl_dnn_cr_boat_40_n03344393_456.JPEG
googlenet,4,1012,NaN,boat,boat,cr,4852_cl_dnn_cr_boat_40_n03344393_4910.JPEG
googlenet,4,1013,NaN,boat,boat,cr,4853_cl_dnn_cr_boat_40_n03344393_8219.JPEG
googlenet,4,1014,NaN,boat,boat,cr,4854_cl_dnn_cr_boat_40_n03662601_34256.JPEG
googlenet,4,1015,NaN,boat,boat,cr,4855_cl_dnn_cr_boat_40_n04273569_32786.JPEG
googlenet,4,1016,NaN,boat,boat,cr,4856_cl_dnn_cr_boat_40_n02951358_17949.JPEG
googlenet,4,1017,NaN,boat,boat,cr,4857_cl_dnn_cr_boat_40_n03344393_3209.JPEG
googlenet,4,1018,NaN,boat,boat,cr,4858_cl_dnn_cr_boat_40_n03344393_302.JPEG
googlenet,4,1019,NaN,boat,boat,cr,4859_cl_dnn_cr_boat_40_n02951358_12296.JPEG
googlenet,4,1020,NaN,boat,boat,cr,4860_cl_dnn_cr_boat_40_n04273569_31042.JPEG
googlenet,4,1021,NaN,boat,boat,cr,4861_cl_dnn_cr_boat_40_n02951358_11901.JPEG
googlenet,4,1022,NaN,boat,boat,cr,4862_cl_dnn_cr_boat_40_n03344393_13952.JPEG
googlenet,4,1023,NaN,boat,boat,cr,4863_cl_dnn_cr_boat_40_n04273569_709.JPEG
googlenet,4,1024,NaN,boat,boat,cr,4864_cl_dnn_cr_boat_40_n03344393_7783.JPEG
googlenet,4,1025,NaN,boat,boat,cr,4865_cl_dnn_cr_boat_40_n03344393_3355.JPEG
googlenet,4,1026,NaN,boat,boat,cr,4866_cl_dnn_cr_boat_40_n02951358_10192.JPEG
googlenet,4,1027,NaN,boat,boat,cr,4867_cl_dnn_cr_boat_40_n04612504_1869.JPEG
googlenet,4,1028,NaN,boat,boat,cr,4868_cl_dnn_cr_boat_40_n03344393_3000.JPEG
googlenet,4,1029,NaN,boat,boat,cr,4869_cl_dnn_cr_boat_40_n02951358_15203.JPEG
googlenet,4,1030,NaN,boat,boat,cr,4870_cl_dnn_cr_boat_40_n02951358_7225.JPEG
googlenet,4,1031,NaN,boat,boat,cr,4871_cl_dnn_cr_boat_40_n04612504_20176.JPEG
googlenet,4,1032,NaN,boat,boat,cr,4872_cl_dnn_cr_boat_40_n03662601_1947.JPEG
googlenet,4,1033,NaN,boat,boat,cr,4873_cl_dnn_cr_boat_40_n02951358_2466.JPEG
googlenet,4,1034,NaN,boat,boat,cr,4874_cl_dnn_cr_boat_40_n02951358_8150.JPEG
googlenet,4,1035,NaN,boat,boat,cr,4875_cl_dnn_cr_boat_40_n04273569_12224.JPEG
googlenet,4,1036,NaN,boat,boat,cr,4876_cl_dnn_cr_boat_40_n04612504_19388.JPEG
googlenet,4,1037,NaN,bird,boat,cr,4877_cl_dnn_cr_boat_40_n03662601_8285.JPEG
googlenet,4,1038,NaN,boat,boat,cr,4878_cl_dnn_cr_boat_40_n03344393_1392.JPEG
googlenet,4,1039,NaN,boat,boat,cr,4879_cl_dnn_cr_boat_40_n03344393_7967.JPEG
googlenet,4,1040,NaN,boat,boat,cr,4880_cl_dnn_cr_boat_40_n02951358_13703.JPEG
googlenet,4,1041,NaN,cat,cat,cr,4881_cl_dnn_cr_cat_40_n02123045_5845.JPEG
googlenet,4,1042,NaN,cat,cat,cr,4882_cl_dnn_cr_cat_40_n02125311_21498.JPEG
googlenet,4,1043,NaN,cat,cat,cr,4883_cl_dnn_cr_cat_40_n02124075_4399.JPEG
googlenet,4,1044,NaN,cat,cat,cr,4884_cl_dnn_cr_cat_40_n02124075_5613.JPEG
googlenet,4,1045,NaN,cat,cat,cr,4885_cl_dnn_cr_cat_40_n02125311_56471.JPEG
googlenet,4,1046,NaN,cat,cat,cr,4886_cl_dnn_cr_cat_40_n02123394_1724.JPEG
googlenet,4,1047,NaN,cat,cat,cr,4887_cl_dnn_cr_cat_40_n02125311_1172.JPEG
googlenet,4,1048,NaN,cat,cat,cr,4888_cl_dnn_cr_cat_40_n02123394_2755.JPEG
googlenet,4,1049,NaN,cat,cat,cr,4889_cl_dnn_cr_cat_40_n02123159_6581.JPEG
googlenet,4,1050,NaN,cat,cat,cr,4890_cl_dnn_cr_cat_40_n02124075_7323.JPEG
googlenet,4,1051,NaN,cat,cat,cr,4891_cl_dnn_cr_cat_40_n02123597_4028.JPEG
googlenet,4,1052,NaN,cat,cat,cr,4892_cl_dnn_cr_cat_40_n02123045_4923.JPEG
googlenet,4,1053,NaN,cat,cat,cr,4893_cl_dnn_cr_cat_40_n02125311_13628.JPEG
googlenet,4,1054,NaN,cat,cat,cr,4894_cl_dnn_cr_cat_40_n02123394_141.JPEG
googlenet,4,1055,NaN,cat,cat,cr,4895_cl_dnn_cr_cat_40_n02124075_10061.JPEG
googlenet,4,1056,NaN,cat,cat,cr,4896_cl_dnn_cr_cat_40_n02123394_7462.JPEG
googlenet,4,1057,NaN,cat,cat,cr,4897_cl_dnn_cr_cat_40_n02123597_3891.JPEG
googlenet,4,1058,NaN,cat,cat,cr,4898_cl_dnn_cr_cat_40_n02123394_2084.JPEG
googlenet,4,1059,NaN,dog,cat,cr,4899_cl_dnn_cr_cat_40_n02123045_1112.JPEG
googlenet,4,1060,NaN,cat,cat,cr,4900_cl_dnn_cr_cat_40_n02125311_5300.JPEG
googlenet,4,1061,NaN,cat,cat,cr,4901_cl_dnn_cr_cat_40_n02125311_1413.JPEG
googlenet,4,1062,NaN,cat,cat,cr,4902_cl_dnn_cr_cat_40_n02123394_2545.JPEG
googlenet,4,1063,NaN,cat,cat,cr,4903_cl_dnn_cr_cat_40_n02123394_2648.JPEG
googlenet,4,1064,NaN,cat,cat,cr,4904_cl_dnn_cr_cat_40_n02125311_13604.JPEG
googlenet,4,1065,NaN,cat,cat,cr,4905_cl_dnn_cr_cat_40_n02123045_8571.JPEG
googlenet,4,1066,NaN,cat,cat,cr,4906_cl_dnn_cr_cat_40_n02125311_37322.JPEG
googlenet,4,1067,NaN,cat,cat,cr,4907_cl_dnn_cr_cat_40_n02123159_1567.JPEG
googlenet,4,1068,NaN,cat,cat,cr,4908_cl_dnn_cr_cat_40_n02125311_1808.JPEG
googlenet,4,1069,NaN,cat,cat,cr,4909_cl_dnn_cr_cat_40_n02124075_521.JPEG
googlenet,4,1070,NaN,cat,cat,cr,4910_cl_dnn_cr_cat_40_n02123597_2061.JPEG
googlenet,4,1071,NaN,cat,cat,cr,4911_cl_dnn_cr_cat_40_n02125311_4574.JPEG
googlenet,4,1072,NaN,cat,cat,cr,4912_cl_dnn_cr_cat_40_n02123159_180.JPEG
googlenet,4,1073,NaN,cat,cat,cr,4913_cl_dnn_cr_cat_40_n02123045_10229.JPEG
googlenet,4,1074,NaN,cat,cat,cr,4914_cl_dnn_cr_cat_40_n02123045_7021.JPEG
googlenet,4,1075,NaN,cat,cat,cr,4915_cl_dnn_cr_cat_40_n02124075_4027.JPEG
googlenet,4,1076,NaN,cat,cat,cr,4916_cl_dnn_cr_cat_40_n02123597_5015.JPEG
googlenet,4,1077,NaN,cat,cat,cr,4917_cl_dnn_cr_cat_40_n02123597_631.JPEG
googlenet,4,1078,NaN,cat,cat,cr,4918_cl_dnn_cr_cat_40_n02123045_10688.JPEG
googlenet,4,1079,NaN,cat,cat,cr,4919_cl_dnn_cr_cat_40_n02123394_724.JPEG
googlenet,4,1080,NaN,cat,cat,cr,4920_cl_dnn_cr_cat_40_n02123045_10866.JPEG
googlenet,4,1081,NaN,bottle,bottle,cr,4921_cl_dnn_cr_bottle_40_n03983396_1871.JPEG
googlenet,4,1082,NaN,bottle,bottle,cr,4922_cl_dnn_cr_bottle_40_n04560804_13942.JPEG
googlenet,4,1083,NaN,bottle,bottle,cr,4923_cl_dnn_cr_bottle_40_n04557648_2649.JPEG
googlenet,4,1084,NaN,bottle,bottle,cr,4924_cl_dnn_cr_bottle_40_n02823428_505.JPEG
googlenet,4,1085,NaN,bottle,bottle,cr,4925_cl_dnn_cr_bottle_40_n03937543_4525.JPEG
googlenet,4,1086,NaN,bottle,bottle,cr,4926_cl_dnn_cr_bottle_40_n04591713_4450.JPEG
googlenet,4,1087,NaN,bottle,bottle,cr,4927_cl_dnn_cr_bottle_40_n02823428_3876.JPEG
googlenet,4,1088,NaN,bottle,bottle,cr,4928_cl_dnn_cr_bottle_40_n02823428_5350.JPEG
googlenet,4,1089,NaN,bottle,bottle,cr,4929_cl_dnn_cr_bottle_40_n03983396_165.JPEG
googlenet,4,1090,NaN,bottle,bottle,cr,4930_cl_dnn_cr_bottle_40_n04557648_2270.JPEG
googlenet,4,1091,NaN,bottle,bottle,cr,4931_cl_dnn_cr_bottle_40_n03983396_1745.JPEG
googlenet,4,1092,NaN,bottle,bottle,cr,4932_cl_dnn_cr_bottle_40_n04591713_11504.JPEG
googlenet,4,1093,NaN,bottle,bottle,cr,4933_cl_dnn_cr_bottle_40_n03983396_5658.JPEG
googlenet,4,1094,NaN,bottle,bottle,cr,4934_cl_dnn_cr_bottle_40_n02823428_11841.JPEG
googlenet,4,1095,NaN,knife,bottle,cr,4935_cl_dnn_cr_bottle_40_n04591713_5586.JPEG
googlenet,4,1096,NaN,bottle,bottle,cr,4936_cl_dnn_cr_bottle_40_n04557648_2052.JPEG
googlenet,4,1097,NaN,bottle,bottle,cr,4937_cl_dnn_cr_bottle_40_n03937543_10597.JPEG
googlenet,4,1098,NaN,bottle,bottle,cr,4938_cl_dnn_cr_bottle_40_n04560804_477.JPEG
googlenet,4,1099,NaN,bottle,bottle,cr,4939_cl_dnn_cr_bottle_40_n02823428_5346.JPEG
googlenet,4,1100,NaN,bottle,bottle,cr,4940_cl_dnn_cr_bottle_40_n04579145_4526.JPEG
googlenet,4,1101,NaN,bottle,bottle,cr,4941_cl_dnn_cr_bottle_40_n04591713_3951.JPEG
googlenet,4,1102,NaN,bottle,bottle,cr,4942_cl_dnn_cr_bottle_40_n04560804_25649.JPEG
googlenet,4,1103,NaN,bottle,bottle,cr,4943_cl_dnn_cr_bottle_40_n02823428_824.JPEG
googlenet,4,1104,NaN,bottle,bottle,cr,4944_cl_dnn_cr_bottle_40_n04560804_5441.JPEG
googlenet,4,1105,NaN,bottle,bottle,cr,4945_cl_dnn_cr_bottle_40_n03983396_455.JPEG
googlenet,4,1106,NaN,bottle,bottle,cr,4946_cl_dnn_cr_bottle_40_n03983396_1382.JPEG
googlenet,4,1107,NaN,bottle,bottle,cr,4947_cl_dnn_cr_bottle_40_n04560804_7681.JPEG
googlenet,4,1108,NaN,bottle,bottle,cr,4948_cl_dnn_cr_bottle_40_n04560804_14491.JPEG
googlenet,4,1109,NaN,bottle,bottle,cr,4949_cl_dnn_cr_bottle_40_n04591713_6138.JPEG
googlenet,4,1110,NaN,bottle,bottle,cr,4950_cl_dnn_cr_bottle_40_n04557648_66.JPEG
googlenet,4,1111,NaN,bottle,bottle,cr,4951_cl_dnn_cr_bottle_40_n04560804_15228.JPEG
googlenet,4,1112,NaN,bottle,bottle,cr,4952_cl_dnn_cr_bottle_40_n03937543_4863.JPEG
googlenet,4,1113,NaN,bottle,bottle,cr,4953_cl_dnn_cr_bottle_40_n04557648_8823.JPEG
googlenet,4,1114,NaN,bottle,bottle,cr,4954_cl_dnn_cr_bottle_40_n03983396_11167.JPEG
googlenet,4,1115,NaN,bottle,bottle,cr,4955_cl_dnn_cr_bottle_40_n04557648_5790.JPEG
googlenet,4,1116,NaN,knife,bottle,cr,4956_cl_dnn_cr_bottle_40_n04557648_14826.JPEG
googlenet,4,1117,NaN,bottle,bottle,cr,4957_cl_dnn_cr_bottle_40_n02823428_3383.JPEG
googlenet,4,1118,NaN,bottle,bottle,cr,4958_cl_dnn_cr_bottle_40_n03937543_690.JPEG
googlenet,4,1119,NaN,bottle,bottle,cr,4959_cl_dnn_cr_bottle_40_n03937543_4932.JPEG
googlenet,4,1120,NaN,bottle,bottle,cr,4960_cl_dnn_cr_bottle_40_n03983396_5161.JPEG
googlenet,4,1121,NaN,truck,truck,cr,4961_cl_dnn_cr_truck_40_n04467665_30504.JPEG
googlenet,4,1122,NaN,truck,truck,cr,4962_cl_dnn_cr_truck_40_n04467665_59894.JPEG
googlenet,4,1123,NaN,truck,truck,cr,4963_cl_dnn_cr_truck_40_n04467665_13898.JPEG
googlenet,4,1124,NaN,truck,truck,cr,4964_cl_dnn_cr_truck_40_n04467665_68486.JPEG
googlenet,4,1125,NaN,truck,truck,cr,4965_cl_dnn_cr_truck_40_n03417042_7111.JPEG
googlenet,4,1126,NaN,truck,truck,cr,4966_cl_dnn_cr_truck_40_n04467665_20363.JPEG
googlenet,4,1127,NaN,truck,truck,cr,4967_cl_dnn_cr_truck_40_n03417042_877.JPEG
googlenet,4,1128,NaN,truck,truck,cr,4968_cl_dnn_cr_truck_40_n03796401_3427.JPEG
googlenet,4,1129,NaN,truck,truck,cr,4969_cl_dnn_cr_truck_40_n04467665_3502.JPEG
googlenet,4,1130,NaN,truck,truck,cr,4970_cl_dnn_cr_truck_40_n03796401_99.JPEG
googlenet,4,1131,NaN,truck,truck,cr,4971_cl_dnn_cr_truck_40_n03796401_7643.JPEG
googlenet,4,1132,NaN,truck,truck,cr,4972_cl_dnn_cr_truck_40_n03417042_10099.JPEG
googlenet,4,1133,NaN,truck,truck,cr,4973_cl_dnn_cr_truck_40_n03417042_7544.JPEG
googlenet,4,1134,NaN,truck,truck,cr,4974_cl_dnn_cr_truck_40_n03417042_1840.JPEG
googlenet,4,1135,NaN,truck,truck,cr,4975_cl_dnn_cr_truck_40_n03417042_6941.JPEG
googlenet,4,1136,NaN,truck,truck,cr,4976_cl_dnn_cr_truck_40_n03796401_2784.JPEG
googlenet,4,1137,NaN,truck,truck,cr,4977_cl_dnn_cr_truck_40_n04467665_28749.JPEG
googlenet,4,1138,NaN,truck,truck,cr,4978_cl_dnn_cr_truck_40_n04467665_56954.JPEG
googlenet,4,1139,NaN,truck,truck,cr,4979_cl_dnn_cr_truck_40_n03417042_6823.JPEG
googlenet,4,1140,NaN,truck,truck,cr,4980_cl_dnn_cr_truck_40_n04467665_4088.JPEG
googlenet,4,1141,NaN,truck,truck,cr,4981_cl_dnn_cr_truck_40_n03417042_3272.JPEG
googlenet,4,1142,NaN,truck,truck,cr,4982_cl_dnn_cr_truck_40_n04467665_69076.JPEG
googlenet,4,1143,NaN,truck,truck,cr,4983_cl_dnn_cr_truck_40_n03417042_5659.JPEG
googlenet,4,1144,NaN,truck,truck,cr,4984_cl_dnn_cr_truck_40_n03417042_5362.JPEG
googlenet,4,1145,NaN,truck,truck,cr,4985_cl_dnn_cr_truck_40_n03417042_3868.JPEG
googlenet,4,1146,NaN,truck,truck,cr,4986_cl_dnn_cr_truck_40_n03796401_15942.JPEG
googlenet,4,1147,NaN,truck,truck,cr,4987_cl_dnn_cr_truck_40_n03417042_7548.JPEG
googlenet,4,1148,NaN,truck,truck,cr,4988_cl_dnn_cr_truck_40_n03417042_698.JPEG
googlenet,4,1149,NaN,truck,truck,cr,4989_cl_dnn_cr_truck_40_n03417042_28742.JPEG
googlenet,4,1150,NaN,truck,truck,cr,4990_cl_dnn_cr_truck_40_n04467665_7184.JPEG
googlenet,4,1151,NaN,truck,truck,cr,4991_cl_dnn_cr_truck_40_n03417042_10876.JPEG
googlenet,4,1152,NaN,truck,truck,cr,4992_cl_dnn_cr_truck_40_n03417042_10958.JPEG
googlenet,4,1153,NaN,truck,truck,cr,4993_cl_dnn_cr_truck_40_n04467665_28576.JPEG
googlenet,4,1154,NaN,truck,truck,cr,4994_cl_dnn_cr_truck_40_n03417042_12869.JPEG
googlenet,4,1155,NaN,truck,truck,cr,4995_cl_dnn_cr_truck_40_n03796401_5053.JPEG
googlenet,4,1156,NaN,truck,truck,cr,4996_cl_dnn_cr_truck_40_n04467665_41562.JPEG
googlenet,4,1157,NaN,truck,truck,cr,4997_cl_dnn_cr_truck_40_n04467665_9273.JPEG
googlenet,4,1158,NaN,truck,truck,cr,4998_cl_dnn_cr_truck_40_n03417042_11037.JPEG
googlenet,4,1159,NaN,truck,truck,cr,4999_cl_dnn_cr_truck_40_n03417042_3845.JPEG
googlenet,4,1160,NaN,truck,truck,cr,5000_cl_dnn_cr_truck_40_n03796401_9514.JPEG
googlenet,4,1161,NaN,car,car,cr,5001_cl_dnn_cr_car_40_n02814533_8499.JPEG
googlenet,4,1162,NaN,car,car,cr,5002_cl_dnn_cr_car_40_n02814533_76968.JPEG
googlenet,4,1163,NaN,car,car,cr,5003_cl_dnn_cr_car_40_n02814533_58929.JPEG
googlenet,4,1164,NaN,car,car,cr,5004_cl_dnn_cr_car_40_n02814533_14121.JPEG
googlenet,4,1165,NaN,car,car,cr,5005_cl_dnn_cr_car_40_n04285008_7503.JPEG
googlenet,4,1166,NaN,car,car,cr,5006_cl_dnn_cr_car_40_n03100240_11664.JPEG
googlenet,4,1167,NaN,car,car,cr,5007_cl_dnn_cr_car_40_n03100240_10774.JPEG
googlenet,4,1168,NaN,car,car,cr,5008_cl_dnn_cr_car_40_n04285008_6313.JPEG
googlenet,4,1169,NaN,car,car,cr,5009_cl_dnn_cr_car_40_n03100240_3189.JPEG
googlenet,4,1170,NaN,car,car,cr,5010_cl_dnn_cr_car_40_n04285008_3053.JPEG
googlenet,4,1171,NaN,car,car,cr,5011_cl_dnn_cr_car_40_n02814533_32335.JPEG
googlenet,4,1172,NaN,car,car,cr,5012_cl_dnn_cr_car_40_n02814533_3560.JPEG
googlenet,4,1173,NaN,car,car,cr,5013_cl_dnn_cr_car_40_n03100240_6197.JPEG
googlenet,4,1174,NaN,car,car,cr,5014_cl_dnn_cr_car_40_n03100240_7836.JPEG
googlenet,4,1175,NaN,car,car,cr,5015_cl_dnn_cr_car_40_n04285008_4811.JPEG
googlenet,4,1176,NaN,car,car,cr,5016_cl_dnn_cr_car_40_n02814533_3697.JPEG
googlenet,4,1177,NaN,car,car,cr,5017_cl_dnn_cr_car_40_n03100240_3973.JPEG
googlenet,4,1178,NaN,car,car,cr,5018_cl_dnn_cr_car_40_n02814533_36770.JPEG
googlenet,4,1179,NaN,car,car,cr,5019_cl_dnn_cr_car_40_n03100240_62.JPEG
googlenet,4,1180,NaN,car,car,cr,5020_cl_dnn_cr_car_40_n03100240_421.JPEG
googlenet,4,1181,NaN,car,car,cr,5021_cl_dnn_cr_car_40_n04285008_3104.JPEG
googlenet,4,1182,NaN,car,car,cr,5022_cl_dnn_cr_car_40_n03100240_23751.JPEG
googlenet,4,1183,NaN,car,car,cr,5023_cl_dnn_cr_car_40_n03100240_6479.JPEG
googlenet,4,1184,NaN,car,car,cr,5024_cl_dnn_cr_car_40_n02814533_59264.JPEG
googlenet,4,1185,NaN,car,car,cr,5025_cl_dnn_cr_car_40_n02814533_89297.JPEG
googlenet,4,1186,NaN,car,car,cr,5026_cl_dnn_cr_car_40_n03100240_8702.JPEG
googlenet,4,1187,NaN,car,car,cr,5027_cl_dnn_cr_car_40_n03100240_22860.JPEG
googlenet,4,1188,NaN,car,car,cr,5028_cl_dnn_cr_car_40_n02814533_51015.JPEG
googlenet,4,1189,NaN,car,car,cr,5029_cl_dnn_cr_car_40_n02814533_6178.JPEG
googlenet,4,1190,NaN,car,car,cr,5030_cl_dnn_cr_car_40_n04285008_8918.JPEG
googlenet,4,1191,NaN,car,car,cr,5031_cl_dnn_cr_car_40_n03100240_5673.JPEG
googlenet,4,1192,NaN,car,car,cr,5032_cl_dnn_cr_car_40_n04285008_11744.JPEG
googlenet,4,1193,NaN,car,car,cr,5033_cl_dnn_cr_car_40_n03100240_7339.JPEG
googlenet,4,1194,NaN,car,car,cr,5034_cl_dnn_cr_car_40_n04285008_11931.JPEG
googlenet,4,1195,NaN,car,car,cr,5035_cl_dnn_cr_car_40_n04285008_7924.JPEG
googlenet,4,1196,NaN,car,car,cr,5036_cl_dnn_cr_car_40_n04285008_402.JPEG
googlenet,4,1197,NaN,car,car,cr,5037_cl_dnn_cr_car_40_n02814533_40501.JPEG
googlenet,4,1198,NaN,car,car,cr,5038_cl_dnn_cr_car_40_n02814533_62491.JPEG
googlenet,4,1199,NaN,car,car,cr,5039_cl_dnn_cr_car_40_n03100240_4543.JPEG
googlenet,4,1200,NaN,car,car,cr,5040_cl_dnn_cr_car_40_n03100240_16210.JPEG
googlenet,4,1201,NaN,bird,bird,cr,5041_cl_dnn_cr_bird_40_n02007558_10088.JPEG
googlenet,4,1202,NaN,bird,bird,cr,5042_cl_dnn_cr_bird_40_n02037110_11998.JPEG
googlenet,4,1203,NaN,bird,bird,cr,5043_cl_dnn_cr_bird_40_n01537544_6996.JPEG
googlenet,4,1204,NaN,bird,bird,cr,5044_cl_dnn_cr_bird_40_n02028035_9607.JPEG
googlenet,4,1205,NaN,bird,bird,cr,5045_cl_dnn_cr_bird_40_n01833805_4968.JPEG
googlenet,4,1206,NaN,bird,bird,cr,5046_cl_dnn_cr_bird_40_n02017213_2064.JPEG
googlenet,4,1207,NaN,bird,bird,cr,5047_cl_dnn_cr_bird_40_n01829413_396.JPEG
googlenet,4,1208,NaN,bird,bird,cr,5048_cl_dnn_cr_bird_40_n02051845_7582.JPEG
googlenet,4,1209,NaN,bird,bird,cr,5049_cl_dnn_cr_bird_40_n02007558_9853.JPEG
googlenet,4,1210,NaN,bird,bird,cr,5050_cl_dnn_cr_bird_40_n01622779_3537.JPEG
googlenet,4,1211,NaN,bird,bird,cr,5051_cl_dnn_cr_bird_40_n01828970_3170.JPEG
googlenet,4,1212,NaN,bird,bird,cr,5052_cl_dnn_cr_bird_40_n01798484_3595.JPEG
googlenet,4,1213,NaN,bird,bird,cr,5053_cl_dnn_cr_bird_40_n02028035_7363.JPEG
googlenet,4,1214,NaN,bird,bird,cr,5054_cl_dnn_cr_bird_40_n01818515_11688.JPEG
googlenet,4,1215,NaN,bird,bird,cr,5055_cl_dnn_cr_bird_40_n01530575_1925.JPEG
googlenet,4,1216,NaN,bird,bird,cr,5056_cl_dnn_cr_bird_40_n02011460_8171.JPEG
googlenet,4,1217,NaN,bird,bird,cr,5057_cl_dnn_cr_bird_40_n01819313_17408.JPEG
googlenet,4,1218,NaN,bird,bird,cr,5058_cl_dnn_cr_bird_40_n01796340_4760.JPEG
googlenet,4,1219,NaN,bird,bird,cr,5059_cl_dnn_cr_bird_40_n02056570_25505.JPEG
googlenet,4,1220,NaN,bird,bird,cr,5060_cl_dnn_cr_bird_40_n01537544_26115.JPEG
googlenet,4,1221,NaN,bird,bird,cr,5061_cl_dnn_cr_bird_40_n02033041_5679.JPEG
googlenet,4,1222,NaN,bird,bird,cr,5062_cl_dnn_cr_bird_40_n01601694_22030.JPEG
googlenet,4,1223,NaN,bird,bird,cr,5063_cl_dnn_cr_bird_40_n02009912_7490.JPEG
googlenet,4,1224,NaN,bird,bird,cr,5064_cl_dnn_cr_bird_40_n02006656_7245.JPEG
googlenet,4,1225,NaN,bird,bird,cr,5065_cl_dnn_cr_bird_40_n01819313_3774.JPEG
googlenet,4,1226,NaN,bird,bird,cr,5066_cl_dnn_cr_bird_40_n01833805_8308.JPEG
googlenet,4,1227,NaN,bird,bird,cr,5067_cl_dnn_cr_bird_40_n02009912_29487.JPEG
googlenet,4,1228,NaN,bird,bird,cr,5068_cl_dnn_cr_bird_40_n02028035_964.JPEG
googlenet,4,1229,NaN,bird,bird,cr,5069_cl_dnn_cr_bird_40_n01818515_14824.JPEG
googlenet,4,1230,NaN,bird,bird,cr,5070_cl_dnn_cr_bird_40_n02009912_20524.JPEG
googlenet,4,1231,NaN,bird,bird,cr,5071_cl_dnn_cr_bird_40_n01843065_8035.JPEG
googlenet,4,1232,NaN,bird,bird,cr,5072_cl_dnn_cr_bird_40_n01798484_10088.JPEG
googlenet,4,1233,NaN,bird,bird,cr,5073_cl_dnn_cr_bird_40_n01843065_6877.JPEG
googlenet,4,1234,NaN,bird,bird,cr,5074_cl_dnn_cr_bird_40_n01843383_5369.JPEG
